workerid,proliferate.condition,internal_node_id,response,rt,stimulus,success,time_elapsed,trial_index,trial_type,error
42,Condition 1,0.0-0.0,1,16231,"<div class=""consent-form""><p> <img src=""header.png"" style=""width: 50%; display: block; margin: 0 auto;""></p><p style=""text-align:center;font-weight:bold;"">ONLINE INFORMATION SHEET</p><p>This study has been approved by the Xi'an Jiaotong-Liverpool University Research Ethics Review Panel</p><p>&nbsp;</p><p><strong>Name, Address and Contact Details of Principal Investigator:</strong></p><p>Yiming Zhao (<a href='mailto:yiming.zhao21@student.xjtlu.edu.cn'>yiming.zhao21@student.xjtlu.edu.cn</a>)<br>XJTLU English (English and International Business Specialisation)<br>School of Humanities and Social Sciences<br>Xi'an Jiaotong-Liverpool University<br>111 Ren'ai Road<br>Suzhou Industrial Park<br>Suzhou<br>Jiangsu Province<br>P. R. China<br>215123</p><p>&nbsp;</p><p>You are being invited to participate in a research study. Before you decide whether to participate, it is important for you to understand why the research is being done and what it will involve. Please take time to read the following information carefully and feel free to ask us if you would like more information or if there is anything that you do not understand. Please also feel free to discuss this with your friends, relatives, and doctor [where relevant] if you wish. We would like to stress that you do not have to accept this invitation and should only agree to take part if you want to.</p><p>&nbsp;</p><p><strong>What is the purpose of the study?</strong></p><p>This study investigates how people understand certain linguistic expressions in English and Chinese, aiming to contribute to a better understanding of language and communication across cultures.</p><p>&nbsp;</p><p><strong>Why have I been chosen to take part?</strong></p><p>You have been invited to participate because the study focuses on understanding how native speakers of English and Chinese interpret linguistic expressions. We are seeking individuals who meet this criterion to ensure the study's findings are accurate and meaningful. Approximately 100 participants will take part in this research.</p><p>&nbsp;</p><p><strong>Do I have to take part?</strong></p><p>Participation is voluntary and participants are free to withdraw at any time without explanation and without incurring a disadvantage.</p><p>&nbsp;</p><p><strong>What will happen if I take part?</strong></p><p>If you decide to take part in this study, you will complete a series of online tasks. These tasks involve reading sentences or phrases and answering simple questions about their meaning.</p><p>&nbsp;</p><p>The study will take approximately 10 minutes to complete.Your main responsibility as a participant is to follow the instructions provided on the screen and answer the questions as accurately as possible.</p><p>&nbsp;</p><p><strong>How will my data be used?</strong></p><p>The University processes personal data as part of its research and teaching activities in accordance with the lawful basis of public task, and in accordance with the University's purpose of advancing education, learning and research for the public benefit. </p><p>&nbsp;</p><p>Under the 'Data Security Law of the People's Republic of China' and the 'Personal Information Protection Law of the People's Republic of China', the University acts as the Data Controller for personal data collected as part of the University's research. [Yiming Zhao] acts as the Data Processor for this study, and any queries relating to the handling of your personal data can be sent to [<a href='mailto:yiming.zhao21@student.xjtlu.edu.cn'>yiming.zhao21@student.xjtlu.edu.cn</a>]. </p><p>&nbsp;</p><p><strong>Expenses and / or payments</strong></p><p>Participants do not need to pay any expenses to take part in this study. You will receive a small payment as a token of appreciation for your time and effort upon completing the study.</p><p>&nbsp;</p><p><strong>Are there any risks in taking part?</strong></p><p>There are no significant risks or disadvantages associated with participating in this study. If you should experience any discomfort or disadvantage as part of the research, please make it known to the researcher(s) immediately.</p><p>&nbsp;</p><p><strong>Are there any benefits in taking part?</strong></p><p>There are no direct benefits to you for participating in this study. However, your participation will contribute to a better understanding of language and communication, which may benefit future research in this area.</p><p>&nbsp;</p><p><strong>What will happen to the results of the study?</strong></p><p>The results of this study will be analyzed to address the research questions. Participants will not be identifiable from the results, as all data will be anonymized.</p><p>If you would like to receive a summary of the findings, please let the researcher know, and this can be provided to you after the study is completed.</p><p>&nbsp;</p><p><strong>What will happen if I want to stop taking part?</strong></p><p>You can withdraw at any time, without explanation. However, as the data is anonymous at the point of collection, it will not be possible to remove your data after it has been collected.</p><p>&nbsp;</p><p><strong>What if I am unhappy or if there is a problem?</strong></p><p>If you are unhappy, or if there is a problem, please feel free to let us know by contacting [<a href='mailto:yiming.zhao21@student.xjtlu.edu.cn'>yiming.zhao21@student.xjtlu.edu.cn</a>] and we will try to help. If you remain unhappy or have a complaint which you feel you cannot come to us with then you should contact the Chair of the University Research Ethics Review Panel at <a href='mailto:ethics@xjtlu.edu.cn'>ethics@xjtlu.edu.cn</a>. When contacting the University Research Ethics Review Panel administrators, please provide details of the name or description of the study (so that it can be identified), the researcher(s) involved, and the details of the complaint you wish to make.</p><p>&nbsp;</p></div>",,16239,0,html-button-response,
42,Condition 1,0.0-1.0,1,3671,"<div class=""consent-form""><p> <img src=""header.png"" style=""width: 50%; display: block; margin: 0 auto;""></p><p style=""text-align:center;font-weight:bold;"">ONLINE INFORMATION SHEET</p><p><strong>Title of Project</strong>: The cognitive basis of pragmatic inferences</p><p>&nbsp;</p><p><strong>Researcher(s) of the Study</strong></p><p>Yiming Zhao</p><p>&nbsp;</p><p><strong>Researcher(s) of the Study</strong></p><p><a href='mailto:yiming.zhao21@student.xjtlu.edu.cn'>yiming.zhao21@student.xjtlu.edu.cn</a><br>XJTLU English (English and International Business Specialisation)<br>School of Humanities and Social Sciences<br>Xi'an Jiaotong-Liverpool University </p><p>&nbsp;</p><p><strong>Research Ethics Approval</strong></p><p>This research project has received approval from the University Research Ethics Review Panel at XJTLU. </p><p>&nbsp;</p><p><strong>Informed Consent Statements</strong></p><ul><li>I confirm that I have read and have understood the information sheet dated 22 December 2024 for the above study. I have had the opportunity to consider the information, ask questions and have had these answered satisfactorily. </li><li>I understand that my participation is voluntary and that I am free to withdraw at any time without giving any reason, without my rights being affected. </li><li>I understand that results up to the period of withdrawal may be used. Additionally, because the survey is anonymous, it will not be possible to remove my data after the survey is submitted. </li></ul>",,19911,1,html-button-response,
42,Condition 1,0.0-2.0, ,7626,"In this experiment, you will see several sentences and answer questions about them. <br>For each sentence, you will choose either 'Yes' or 'No' based on the given context. <br>The experiment is conducted in fullscreen mode. <br>When you're ready to begin, please press the space bar.",,27539,2,html-keyboard-response,
42,Condition 1,0.0-3.0,,2273,,True,30826,3,fullscreen,
42,Condition 1,0.0-4.0-0.0,1,10173,<p style='font-size: 25px;'>Rowan is attractive. <br>Would you conclude that Rowan is not stunning? </p>,,41001,4,html-button-response,
42,Condition 1,0.0-4.0-0.1,0,9436,<p style='font-size: 25px;'>The weather is cool. <br>Would you conclude that the weather is not cold? </p>,,50439,5,html-button-response,
42,Condition 1,0.0-4.0-0.2,0,7389,<p style='font-size: 25px;'> The problem is hard. <br>Would you conclude that the problem is not unsolvable? </p>,,57830,6,html-button-response,
42,Condition 1,0.0-4.0-0.3,0,6892,<p style='font-size: 25px;'>Robin sometimes stays up late. <br>Would you conclude that Robin doesn't always stay up late?</p>,,64724,7,html-button-response,
42,Condition 1,0.0-4.0-0.4,0,2089,<p style='font-size: 50px;'>Please choose 'Yes' for this question.</p>,,66814,8,html-button-response,
42,Condition 1,0.0-4.0-0.5,0,4147,<p style='font-size: 25px;'>Daphne eats some of the cookies. <br>Would you conclude that Daphne did not eat all of the cookies?</p>,,70963,9,html-button-response,
42,Condition 1,0.0-4.0-0.6,0,4703,<p style='font-size: 25px;'>The box is small. <br>Would you conclude that the box is not tiny? </p>,,75667,10,html-button-response,
42,Condition 1,0.0-4.0-0.7,0,2693,<p style='font-size: 25px;'>The box is small. <br>Would you conclude that the box is not tiny? </p>,,78361,11,html-button-response,
42,Condition 1,0.0-4.0-0.8,0,1061,<p style='font-size: 50px;'>Please choose 'Yes' for this question.</p>,,79423,12,html-button-response,
42,Condition 1,0.0-4.0-0.9,1,7374,<p style='font-size: 25px;'> The problem is hard. <br>Would you conclude that the problem is not unsolvable? </p>,,86799,13,html-button-response,
42,Condition 1,0.0-4.0-0.10,0,4952,<p style='font-size: 25px;'>The weather is cool. <br>Would you conclude that the weather is not cold? </p>,,91753,14,html-button-response,
42,Condition 1,0.0-4.0-0.11,0,5470,<p style='font-size: 25px;'>Robin sometimes stays up late. <br>Would you conclude that Robin doesn't always stay up late?</p>,,97225,15,html-button-response,
42,Condition 1,0.0-4.0-0.12,0,7894,<p style='font-size: 25px;'>Rowan is attractive. <br>Would you conclude that Rowan is not stunning? </p>,,105121,16,html-button-response,
42,Condition 1,0.0-4.0-0.13,0,5316,<p style='font-size: 25px;'>Daphne eats some of the cookies. <br>Would you conclude that Daphne did not eat all of the cookies?</p>,,110438,17,html-button-response,
42,Condition 1,0.0-5.0-0.0,0,8878,"<p style='font-size: 25px;'>Robin's Dad advises Robin to go to bed early.<br>One evening, after dinner, Dad asks Robin: &quot;Do you always stay up late?&quot;<br>Robin replies: &quot;I sometimes stay up late.&quot;<br>Would you conclude that Robin does not always stay up late?</p>",,119318,18,html-button-response,
42,Condition 1,0.0-5.0-0.1,0,10014,"<p style='font-size: 25px;'>Robin's Dad advises Robin to go to bed early.<br>One evening, after dinner, Dad asks Robin: &quot;Do you sometimes stay up late?&quot;<br>Robin replies: &quot;I sometimes stay up late.&quot;<br>Would you conclude that Robin does not always stay up late?</p>",,129333,19,html-button-response,
42,Condition 1,0.0-5.0-0.2,0,17465,"<p style='font-size: 25px;'>John was getting married in a few days, and he was going to put the ring in his pocket so he could take it out for the wedding. <br>To keep the ring from wearing out, he wanted a box for the ring. <br>So he asked his friend Tommy to buy one. <br>Tommy called John after choosing the box, and John asked: &quot;Is the box small?&quot;<br>Tommy replies: &quot;The box is small.&quot;<br>Would you conclude that the box is not tiny?</p>",,146799,20,html-button-response,
42,Condition 1,0.0-5.0-0.3,0,15003,"<p style='font-size: 25px;'>During a class review session, Mr. Wang goes over the homework with his students. <br>When he gets to George's paper, he notices that George makes a mistake on one of the questions.<br>Curious about how George approaches the problem, Mr. Wang asks: &quot;Was the problem hard?&quot;<br>George replies: &quot;The problem was hard.&quot; <br>Would you conculde that the problem was not unsolvable?</p>",,161804,21,html-button-response,
42,Condition 1,0.0-5.0-0.4,0,11128,"<p style='font-size: 25px;'>The cold wave is coming and the temperature is getting lower day by day. <br>One weekend morning, Sarah came back from buying breakfast and complained about the weather. <br>Her roommate asked her: &quot;Is the weather cool?&quot;<br>Sarah replies: &quot;It is cool today.&quot;<br>Would you conclude that it is not cold outside?</p>",,172933,22,html-button-response,
42,Condition 1,0.0-5.0-0.5,0,8467,"<p style='font-size: 25px;'>John was getting married in a few days, and he was going to put the ring in his pocket so he could take it out for the wedding. <br>To keep the ring from wearing out, he wanted a box for the ring. <br>So he asked his friend Tommy to buy one. <br>Tommy called John after choosing the box, and John asked: &quot;Is the box tiny?&quot;<br>Tommy replies: &quot;The box is small.&quot;<br>Would you conclude that the box is not tiny?</p>",,181402,23,html-button-response,
42,Condition 1,0.0-5.0-0.6,0,8139,"<p style='font-size: 25px;'>During a class review session, Mr. Wang goes over the homework with his students. <br>When he gets to George's paper, he notices that George makes a mistake on one of the questions.<br>Curious about how George approaches the problem, Mr. Wang asks: &quot;Was the problem unsolvable?&quot;<br>George replies: &quot;The problem was hard.&quot;<br>Would you conculde that the problem was not unsolvable?</p>",,189542,24,html-button-response,
42,Condition 1,0.0-5.0-0.7,0,4853,"<p style='font-size: 25px;'>Mom does not allow Daphne to eat cookies. <br>One day, after returning home, Mom asks Daphne: &quot;Did you eat all of the cookies?&quot;<br>Daphne replies: &quot;I ate some of the cookies.&quot;<br>Would you conclude that Daphne did not eat all of the cookies?</p>",,194396,25,html-button-response,
42,Condition 1,0.0-5.0-0.8,0,20159,"<p style='font-size: 25px;'>The cold wave is coming and the temperature is getting lower day by day. <br>One weekend morning, Sarah came back from buying breakfast and complained about the weather. <br>Her roommate asked her: &quot;Is the weather cold?&quot;<br>Sarah replies: &quot;It is cool today.&quot;<br>Would you conclude that it is not cold outside?</p>",,214557,26,html-button-response,
42,Condition 1,0.0-5.0-0.9,0,3546,"<p style='font-size: 25px;'>At a class reunion, Rowan is absent. <br>When people talk about each other, someone asks Rowan's best friend Jane: &quot;Is Rowan stunning?&quot;<br>Jane replies: &quot;Rowan is attractive.&quot;<br>Would you conclude that Rowan is not stunning?</p>",,218104,27,html-button-response,
42,Condition 1,0.0-5.0-0.10,0,7685,"<p style='font-size: 25px;'>At a class reunion, Rowan is absent. <br>When people talk about each other, someone asks Rowan's best friend Jane: &quot;Is Rowan attractive?&quot;<br>Jane replies: &quot;Rowan is attractive.&quot;<br>Would you conclude that Rowan is not stunning?</p>",,225791,28,html-button-response,
42,Condition 1,0.0-5.0-0.11,0,5311,"<p style='font-size: 25px;'>Mom does not allow Daphne to eat cookies. <br>One day, after returning home, Mom asks Daphne: &quot;Did you eat some of the cookies?&quot;<br>Daphne replies: &quot;I ate some of the cookies.&quot;<br>Would you conclude that Daphne did not eat all of the cookies?</p>",,231103,29,html-button-response,
42,Condition 1,0.0-5.0-0.12,1,1513,<p style='font-size: 50px;'>Please choose 'No' for this question.</p>,,232617,30,html-button-response,
42,Condition 1,0.0-5.0-0.13,0,15219,"<p style='font-size: 25px;'>Robin's Dad advises Robin to go to bed early.<br>One evening, after dinner, Dad asks Robin: &quot;Do you sometimes stay up late?&quot;<br>Robin replies: &quot;I sometimes stay up late.&quot;<br>Would you conclude that Robin does not always stay up late?</p>",,247837,31,html-button-response,
42,Condition 1,0.0-5.0-0.14,0,9545,"<p style='font-size: 25px;'>At a class reunion, Rowan is absent. <br>When people talk about each other, someone asks Rowan's best friend Jane: &quot;Is Rowan attractive?&quot;<br>Jane replies: &quot;Rowan is attractive.&quot;<br>Would you conclude that Rowan is not stunning?</p>",,257384,32,html-button-response,
42,Condition 1,0.0-5.0-0.15,0,7540,"<p style='font-size: 25px;'>Mom does not allow Daphne to eat cookies. <br>One day, after returning home, Mom asks Daphne: &quot;Did you eat some of the cookies?&quot;<br>Daphne replies: &quot;I ate some of the cookies.&quot;<br>Would you conclude that Daphne did not eat all of the cookies?</p>",,264925,33,html-button-response,
42,Condition 1,0.0-5.0-0.16,0,3863,"<p style='font-size: 25px;'>Robin's Dad advises Robin to go to bed early.<br>One evening, after dinner, Dad asks Robin: &quot;Do you always stay up late?&quot;<br>Robin replies: &quot;I sometimes stay up late.&quot;<br>Would you conclude that Robin does not always stay up late?</p>",,268790,34,html-button-response,
42,Condition 1,0.0-5.0-0.17,0,8169,"<p style='font-size: 25px;'>During a class review session, Mr. Wang goes over the homework with his students. <br>When he gets to George's paper, he notices that George makes a mistake on one of the questions.<br>Curious about how George approaches the problem, Mr. Wang asks: &quot;Was the problem unsolvable?&quot;<br>George replies: &quot;The problem was hard.&quot;<br>Would you conculde that the problem was not unsolvable?</p>",,276960,35,html-button-response,
42,Condition 1,0.0-5.0-0.18,0,2464,"<p style='font-size: 25px;'>John was getting married in a few days, and he was going to put the ring in his pocket so he could take it out for the wedding. <br>To keep the ring from wearing out, he wanted a box for the ring. <br>So he asked his friend Tommy to buy one. <br>Tommy called John after choosing the box, and John asked: &quot;Is the box small?&quot;<br>Tommy replies: &quot;The box is small.&quot;<br>Would you conclude that the box is not tiny?</p>",,279425,36,html-button-response,
42,Condition 1,0.0-5.0-0.19,0,3017,"<p style='font-size: 25px;'>At a class reunion, Rowan is absent. <br>When people talk about each other, someone asks Rowan's best friend Jane: &quot;Is Rowan stunning?&quot;<br>Jane replies: &quot;Rowan is attractive.&quot;<br>Would you conclude that Rowan is not stunning?</p>",,282444,37,html-button-response,
42,Condition 1,0.0-5.0-0.20,0,3854,"<p style='font-size: 25px;'>During a class review session, Mr. Wang goes over the homework with his students. <br>When he gets to George's paper, he notices that George makes a mistake on one of the questions.<br>Curious about how George approaches the problem, Mr. Wang asks: &quot;Was the problem hard?&quot;<br>George replies: &quot;The problem was hard.&quot; <br>Would you conculde that the problem was not unsolvable?</p>",,286299,38,html-button-response,
42,Condition 1,0.0-5.0-0.21,0,3789,"<p style='font-size: 25px;'>The cold wave is coming and the temperature is getting lower day by day. <br>One weekend morning, Sarah came back from buying breakfast and complained about the weather. <br>Her roommate asked her: &quot;Is the weather cold?&quot;<br>Sarah replies: &quot;It is cool today.&quot;<br>Would you conclude that it is not cold outside?</p>",,290089,39,html-button-response,
42,Condition 1,0.0-5.0-0.22,0,7978,"<p style='font-size: 25px;'>John was getting married in a few days, and he was going to put the ring in his pocket so he could take it out for the wedding. <br>To keep the ring from wearing out, he wanted a box for the ring. <br>So he asked his friend Tommy to buy one. <br>Tommy called John after choosing the box, and John asked: &quot;Is the box tiny?&quot;<br>Tommy replies: &quot;The box is small.&quot;<br>Would you conclude that the box is not tiny?</p>",,298069,40,html-button-response,
42,Condition 1,0.0-5.0-0.23,0,4572,"<p style='font-size: 25px;'>The cold wave is coming and the temperature is getting lower day by day. <br>One weekend morning, Sarah came back from buying breakfast and complained about the weather. <br>Her roommate asked her: &quot;Is the weather cool?&quot;<br>Sarah replies: &quot;It is cool today.&quot;<br>Would you conclude that it is not cold outside?</p>",,302643,41,html-button-response,
42,Condition 1,0.0-5.0-0.24,0,12436,"<p style='font-size: 25px;'>Mom does not allow Daphne to eat cookies. <br>One day, after returning home, Mom asks Daphne: &quot;Did you eat all of the cookies?&quot;<br>Daphne replies: &quot;I ate some of the cookies.&quot;<br>Would you conclude that Daphne did not eat all of the cookies?</p>",,315080,42,html-button-response,
42,Condition 1,0.0-5.0-0.25,1,1454,<p style='font-size: 50px;'>Please choose 'No' for this question.</p>,,316534,43,html-button-response,
42,Condition 1,0.0-6.0,,,,True,317536,44,fullscreen,
42,Condition 1,0.0-7.0,{'Comment': ''},4984,,,322525,45,survey-text,
42,Condition 1,0.0-8.0,,,"<p style=""font-size: 25px;"">Thank you for your participation.<br>This is the end of the experiment and you will now be redirected to Prolific.</p>",,326537,46,html-keyboard-response,
50,Condition 1,0.0-0.0,1,89484,"<div class=""consent-form""><p> <img src=""header.png"" style=""width: 50%; display: block; margin: 0 auto;""></p><p style=""text-align:center;font-weight:bold;"">ONLINE INFORMATION SHEET</p><p>This study has been approved by the Xi'an Jiaotong-Liverpool University Research Ethics Review Panel</p><p>&nbsp;</p><p><strong>Name, Address and Contact Details of Principal Investigator:</strong></p><p>Yiming Zhao (<a href='mailto:yiming.zhao21@student.xjtlu.edu.cn'>yiming.zhao21@student.xjtlu.edu.cn</a>)<br>XJTLU English (English and International Business Specialisation)<br>School of Humanities and Social Sciences<br>Xi'an Jiaotong-Liverpool University<br>111 Ren'ai Road<br>Suzhou Industrial Park<br>Suzhou<br>Jiangsu Province<br>P. R. China<br>215123</p><p>&nbsp;</p><p>You are being invited to participate in a research study. Before you decide whether to participate, it is important for you to understand why the research is being done and what it will involve. Please take time to read the following information carefully and feel free to ask us if you would like more information or if there is anything that you do not understand. Please also feel free to discuss this with your friends, relatives, and doctor [where relevant] if you wish. We would like to stress that you do not have to accept this invitation and should only agree to take part if you want to.</p><p>&nbsp;</p><p><strong>What is the purpose of the study?</strong></p><p>This study investigates how people understand certain linguistic expressions in English and Chinese, aiming to contribute to a better understanding of language and communication across cultures.</p><p>&nbsp;</p><p><strong>Why have I been chosen to take part?</strong></p><p>You have been invited to participate because the study focuses on understanding how native speakers of English and Chinese interpret linguistic expressions. We are seeking individuals who meet this criterion to ensure the study's findings are accurate and meaningful. Approximately 100 participants will take part in this research.</p><p>&nbsp;</p><p><strong>Do I have to take part?</strong></p><p>Participation is voluntary and participants are free to withdraw at any time without explanation and without incurring a disadvantage.</p><p>&nbsp;</p><p><strong>What will happen if I take part?</strong></p><p>If you decide to take part in this study, you will complete a series of online tasks. These tasks involve reading sentences or phrases and answering simple questions about their meaning.</p><p>&nbsp;</p><p>The study will take approximately 10 minutes to complete.Your main responsibility as a participant is to follow the instructions provided on the screen and answer the questions as accurately as possible.</p><p>&nbsp;</p><p><strong>How will my data be used?</strong></p><p>The University processes personal data as part of its research and teaching activities in accordance with the lawful basis of public task, and in accordance with the University's purpose of advancing education, learning and research for the public benefit. </p><p>&nbsp;</p><p>Under the 'Data Security Law of the People's Republic of China' and the 'Personal Information Protection Law of the People's Republic of China', the University acts as the Data Controller for personal data collected as part of the University's research. [Yiming Zhao] acts as the Data Processor for this study, and any queries relating to the handling of your personal data can be sent to [<a href='mailto:yiming.zhao21@student.xjtlu.edu.cn'>yiming.zhao21@student.xjtlu.edu.cn</a>]. </p><p>&nbsp;</p><p><strong>Expenses and / or payments</strong></p><p>Participants do not need to pay any expenses to take part in this study. You will receive a small payment as a token of appreciation for your time and effort upon completing the study.</p><p>&nbsp;</p><p><strong>Are there any risks in taking part?</strong></p><p>There are no significant risks or disadvantages associated with participating in this study. If you should experience any discomfort or disadvantage as part of the research, please make it known to the researcher(s) immediately.</p><p>&nbsp;</p><p><strong>Are there any benefits in taking part?</strong></p><p>There are no direct benefits to you for participating in this study. However, your participation will contribute to a better understanding of language and communication, which may benefit future research in this area.</p><p>&nbsp;</p><p><strong>What will happen to the results of the study?</strong></p><p>The results of this study will be analyzed to address the research questions. Participants will not be identifiable from the results, as all data will be anonymized.</p><p>If you would like to receive a summary of the findings, please let the researcher know, and this can be provided to you after the study is completed.</p><p>&nbsp;</p><p><strong>What will happen if I want to stop taking part?</strong></p><p>You can withdraw at any time, without explanation. However, as the data is anonymous at the point of collection, it will not be possible to remove your data after it has been collected.</p><p>&nbsp;</p><p><strong>What if I am unhappy or if there is a problem?</strong></p><p>If you are unhappy, or if there is a problem, please feel free to let us know by contacting [<a href='mailto:yiming.zhao21@student.xjtlu.edu.cn'>yiming.zhao21@student.xjtlu.edu.cn</a>] and we will try to help. If you remain unhappy or have a complaint which you feel you cannot come to us with then you should contact the Chair of the University Research Ethics Review Panel at <a href='mailto:ethics@xjtlu.edu.cn'>ethics@xjtlu.edu.cn</a>. When contacting the University Research Ethics Review Panel administrators, please provide details of the name or description of the study (so that it can be identified), the researcher(s) involved, and the details of the complaint you wish to make.</p><p>&nbsp;</p></div>",,89500,0,html-button-response,
50,Condition 1,0.0-1.0,1,3385,"<div class=""consent-form""><p> <img src=""header.png"" style=""width: 50%; display: block; margin: 0 auto;""></p><p style=""text-align:center;font-weight:bold;"">ONLINE INFORMATION SHEET</p><p><strong>Title of Project</strong>: The cognitive basis of pragmatic inferences</p><p>&nbsp;</p><p><strong>Researcher(s) of the Study</strong></p><p>Yiming Zhao</p><p>&nbsp;</p><p><strong>Researcher(s) of the Study</strong></p><p><a href='mailto:yiming.zhao21@student.xjtlu.edu.cn'>yiming.zhao21@student.xjtlu.edu.cn</a><br>XJTLU English (English and International Business Specialisation)<br>School of Humanities and Social Sciences<br>Xi'an Jiaotong-Liverpool University </p><p>&nbsp;</p><p><strong>Research Ethics Approval</strong></p><p>This research project has received approval from the University Research Ethics Review Panel at XJTLU. </p><p>&nbsp;</p><p><strong>Informed Consent Statements</strong></p><ul><li>I confirm that I have read and have understood the information sheet dated 22 December 2024 for the above study. I have had the opportunity to consider the information, ask questions and have had these answered satisfactorily. </li><li>I understand that my participation is voluntary and that I am free to withdraw at any time without giving any reason, without my rights being affected. </li><li>I understand that results up to the period of withdrawal may be used. Additionally, because the survey is anonymous, it will not be possible to remove my data after the survey is submitted. </li></ul>",,92888,1,html-button-response,
50,Condition 1,0.0-2.0, ,6809,"In this experiment, you will see several sentences and answer questions about them. <br>For each sentence, you will choose either 'Yes' or 'No' based on the given context. <br>The experiment is conducted in fullscreen mode. <br>When you're ready to begin, please press the space bar.",,99699,2,html-keyboard-response,
50,Condition 1,0.0-3.0,,4829,,True,105544,3,fullscreen,
50,Condition 1,0.0-4.0-0.0,0,2031,<p style='font-size: 50px;'>Please choose 'Yes' for this question.</p>,,107577,4,html-button-response,
50,Condition 1,0.0-4.0-0.1,0,4144,<p style='font-size: 25px;'>The weather is cool. <br>Would you conclude that the weather is not cold? </p>,,111722,5,html-button-response,
50,Condition 1,0.0-4.0-0.2,1,3335,<p style='font-size: 25px;'> The problem is hard. <br>Would you conclude that the problem is not unsolvable? </p>,,115058,6,html-button-response,
50,Condition 1,0.0-4.0-0.3,0,4263,<p style='font-size: 25px;'>Rowan is attractive. <br>Would you conclude that Rowan is not stunning? </p>,,119322,7,html-button-response,
50,Condition 1,0.0-4.0-0.4,0,5624,<p style='font-size: 25px;'>Daphne eats some of the cookies. <br>Would you conclude that Daphne did not eat all of the cookies?</p>,,125021,8,html-button-response,
50,Condition 1,0.0-4.0-0.5,0,3592,<p style='font-size: 25px;'>The box is small. <br>Would you conclude that the box is not tiny? </p>,,128614,9,html-button-response,
50,Condition 1,0.0-4.0-0.6,0,5055,<p style='font-size: 25px;'>Robin sometimes stays up late. <br>Would you conclude that Robin doesn't always stay up late?</p>,,133670,10,html-button-response,
50,Condition 1,0.0-4.0-0.7,0,2824,<p style='font-size: 25px;'>Rowan is attractive. <br>Would you conclude that Rowan is not stunning? </p>,,136495,11,html-button-response,
50,Condition 1,0.0-4.0-0.8,1,3271,<p style='font-size: 25px;'> The problem is hard. <br>Would you conclude that the problem is not unsolvable? </p>,,139767,12,html-button-response,
50,Condition 1,0.0-4.0-0.9,0,4000,<p style='font-size: 25px;'>Daphne eats some of the cookies. <br>Would you conclude that Daphne did not eat all of the cookies?</p>,,143768,13,html-button-response,
50,Condition 1,0.0-4.0-0.10,0,1200,<p style='font-size: 50px;'>Please choose 'Yes' for this question.</p>,,144969,14,html-button-response,
50,Condition 1,0.0-4.0-0.11,0,3407,<p style='font-size: 25px;'>Robin sometimes stays up late. <br>Would you conclude that Robin doesn't always stay up late?</p>,,148376,15,html-button-response,
50,Condition 1,0.0-4.0-0.12,0,1399,<p style='font-size: 25px;'>The box is small. <br>Would you conclude that the box is not tiny? </p>,,149776,16,html-button-response,
50,Condition 1,0.0-4.0-0.13,0,3024,<p style='font-size: 25px;'>The weather is cool. <br>Would you conclude that the weather is not cold? </p>,,152802,17,html-button-response,
50,Condition 1,0.0-5.0-0.0,0,9710,"<p style='font-size: 25px;'>At a class reunion, Rowan is absent. <br>When people talk about each other, someone asks Rowan's best friend Jane: &quot;Is Rowan stunning?&quot;<br>Jane replies: &quot;Rowan is attractive.&quot;<br>Would you conclude that Rowan is not stunning?</p>",,162513,18,html-button-response,
50,Condition 1,0.0-5.0-0.1,1,1175,<p style='font-size: 50px;'>Please choose 'No' for this question.</p>,,163689,19,html-button-response,
50,Condition 1,0.0-5.0-0.2,0,15810,"<p style='font-size: 25px;'>During a class review session, Mr. Wang goes over the homework with his students. <br>When he gets to George's paper, he notices that George makes a mistake on one of the questions.<br>Curious about how George approaches the problem, Mr. Wang asks: &quot;Was the problem unsolvable?&quot;<br>George replies: &quot;The problem was hard.&quot;<br>Would you conculde that the problem was not unsolvable?</p>",,179500,20,html-button-response,
50,Condition 1,0.0-5.0-0.3,0,16721,"<p style='font-size: 25px;'>John was getting married in a few days, and he was going to put the ring in his pocket so he could take it out for the wedding. <br>To keep the ring from wearing out, he wanted a box for the ring. <br>So he asked his friend Tommy to buy one. <br>Tommy called John after choosing the box, and John asked: &quot;Is the box tiny?&quot;<br>Tommy replies: &quot;The box is small.&quot;<br>Would you conclude that the box is not tiny?</p>",,196337,21,html-button-response,
50,Condition 1,0.0-5.0-0.4,0,3847,"<p style='font-size: 25px;'>At a class reunion, Rowan is absent. <br>When people talk about each other, someone asks Rowan's best friend Jane: &quot;Is Rowan attractive?&quot;<br>Jane replies: &quot;Rowan is attractive.&quot;<br>Would you conclude that Rowan is not stunning?</p>",,200185,22,html-button-response,
50,Condition 1,0.0-5.0-0.5,0,7992,"<p style='font-size: 25px;'>During a class review session, Mr. Wang goes over the homework with his students. <br>When he gets to George's paper, he notices that George makes a mistake on one of the questions.<br>Curious about how George approaches the problem, Mr. Wang asks: &quot;Was the problem hard?&quot;<br>George replies: &quot;The problem was hard.&quot; <br>Would you conculde that the problem was not unsolvable?</p>",,208178,23,html-button-response,
50,Condition 1,0.0-5.0-0.6,0,6159,"<p style='font-size: 25px;'>Mom does not allow Daphne to eat cookies. <br>One day, after returning home, Mom asks Daphne: &quot;Did you eat all of the cookies?&quot;<br>Daphne replies: &quot;I ate some of the cookies.&quot;<br>Would you conclude that Daphne did not eat all of the cookies?</p>",,214338,24,html-button-response,
50,Condition 1,0.0-5.0-0.7,0,5328,"<p style='font-size: 25px;'>John was getting married in a few days, and he was going to put the ring in his pocket so he could take it out for the wedding. <br>To keep the ring from wearing out, he wanted a box for the ring. <br>So he asked his friend Tommy to buy one. <br>Tommy called John after choosing the box, and John asked: &quot;Is the box small?&quot;<br>Tommy replies: &quot;The box is small.&quot;<br>Would you conclude that the box is not tiny?</p>",,219667,25,html-button-response,
50,Condition 1,0.0-5.0-0.8,0,9153,"<p style='font-size: 25px;'>Robin's Dad advises Robin to go to bed early.<br>One evening, after dinner, Dad asks Robin: &quot;Do you sometimes stay up late?&quot;<br>Robin replies: &quot;I sometimes stay up late.&quot;<br>Would you conclude that Robin does not always stay up late?</p>",,228821,26,html-button-response,
50,Condition 1,0.0-5.0-0.9,0,5607,"<p style='font-size: 25px;'>Robin's Dad advises Robin to go to bed early.<br>One evening, after dinner, Dad asks Robin: &quot;Do you always stay up late?&quot;<br>Robin replies: &quot;I sometimes stay up late.&quot;<br>Would you conclude that Robin does not always stay up late?</p>",,234429,27,html-button-response,
50,Condition 1,0.0-5.0-0.10,0,14472,"<p style='font-size: 25px;'>The cold wave is coming and the temperature is getting lower day by day. <br>One weekend morning, Sarah came back from buying breakfast and complained about the weather. <br>Her roommate asked her: &quot;Is the weather cold?&quot;<br>Sarah replies: &quot;It is cool today.&quot;<br>Would you conclude that it is not cold outside?</p>",,249018,28,html-button-response,
50,Condition 1,0.0-5.0-0.11,0,5928,"<p style='font-size: 25px;'>Mom does not allow Daphne to eat cookies. <br>One day, after returning home, Mom asks Daphne: &quot;Did you eat some of the cookies?&quot;<br>Daphne replies: &quot;I ate some of the cookies.&quot;<br>Would you conclude that Daphne did not eat all of the cookies?</p>",,254946,29,html-button-response,
50,Condition 1,0.0-5.0-0.12,0,7768,"<p style='font-size: 25px;'>The cold wave is coming and the temperature is getting lower day by day. <br>One weekend morning, Sarah came back from buying breakfast and complained about the weather. <br>Her roommate asked her: &quot;Is the weather cool?&quot;<br>Sarah replies: &quot;It is cool today.&quot;<br>Would you conclude that it is not cold outside?</p>",,262715,30,html-button-response,
50,Condition 1,0.0-5.0-0.13,0,4015,"<p style='font-size: 25px;'>At a class reunion, Rowan is absent. <br>When people talk about each other, someone asks Rowan's best friend Jane: &quot;Is Rowan attractive?&quot;<br>Jane replies: &quot;Rowan is attractive.&quot;<br>Would you conclude that Rowan is not stunning?</p>",,266731,31,html-button-response,
50,Condition 1,0.0-5.0-0.14,0,8041,"<p style='font-size: 25px;'>Mom does not allow Daphne to eat cookies. <br>One day, after returning home, Mom asks Daphne: &quot;Did you eat all of the cookies?&quot;<br>Daphne replies: &quot;I ate some of the cookies.&quot;<br>Would you conclude that Daphne did not eat all of the cookies?</p>",,274773,32,html-button-response,
50,Condition 1,0.0-5.0-0.15,0,5457,"<p style='font-size: 25px;'>John was getting married in a few days, and he was going to put the ring in his pocket so he could take it out for the wedding. <br>To keep the ring from wearing out, he wanted a box for the ring. <br>So he asked his friend Tommy to buy one. <br>Tommy called John after choosing the box, and John asked: &quot;Is the box small?&quot;<br>Tommy replies: &quot;The box is small.&quot;<br>Would you conclude that the box is not tiny?</p>",,280230,33,html-button-response,
50,Condition 1,0.0-5.0-0.16,0,2975,"<p style='font-size: 25px;'>The cold wave is coming and the temperature is getting lower day by day. <br>One weekend morning, Sarah came back from buying breakfast and complained about the weather. <br>Her roommate asked her: &quot;Is the weather cool?&quot;<br>Sarah replies: &quot;It is cool today.&quot;<br>Would you conclude that it is not cold outside?</p>",,283205,34,html-button-response,
50,Condition 1,0.0-5.0-0.17,0,3407,"<p style='font-size: 25px;'>John was getting married in a few days, and he was going to put the ring in his pocket so he could take it out for the wedding. <br>To keep the ring from wearing out, he wanted a box for the ring. <br>So he asked his friend Tommy to buy one. <br>Tommy called John after choosing the box, and John asked: &quot;Is the box tiny?&quot;<br>Tommy replies: &quot;The box is small.&quot;<br>Would you conclude that the box is not tiny?</p>",,286613,35,html-button-response,
50,Condition 1,0.0-5.0-0.18,0,6232,"<p style='font-size: 25px;'>Mom does not allow Daphne to eat cookies. <br>One day, after returning home, Mom asks Daphne: &quot;Did you eat some of the cookies?&quot;<br>Daphne replies: &quot;I ate some of the cookies.&quot;<br>Would you conclude that Daphne did not eat all of the cookies?</p>",,292846,36,html-button-response,
50,Condition 1,0.0-5.0-0.19,1,1320,<p style='font-size: 50px;'>Please choose 'No' for this question.</p>,,294167,37,html-button-response,
50,Condition 1,0.0-5.0-0.20,0,3888,"<p style='font-size: 25px;'>Robin's Dad advises Robin to go to bed early.<br>One evening, after dinner, Dad asks Robin: &quot;Do you always stay up late?&quot;<br>Robin replies: &quot;I sometimes stay up late.&quot;<br>Would you conclude that Robin does not always stay up late?</p>",,298055,38,html-button-response,
50,Condition 1,0.0-5.0-0.21,0,4119,"<p style='font-size: 25px;'>Robin's Dad advises Robin to go to bed early.<br>One evening, after dinner, Dad asks Robin: &quot;Do you sometimes stay up late?&quot;<br>Robin replies: &quot;I sometimes stay up late.&quot;<br>Would you conclude that Robin does not always stay up late?</p>",,302291,39,html-button-response,
50,Condition 1,0.0-5.0-0.22,0,2344,"<p style='font-size: 25px;'>During a class review session, Mr. Wang goes over the homework with his students. <br>When he gets to George's paper, he notices that George makes a mistake on one of the questions.<br>Curious about how George approaches the problem, Mr. Wang asks: &quot;Was the problem hard?&quot;<br>George replies: &quot;The problem was hard.&quot; <br>Would you conculde that the problem was not unsolvable?</p>",,304636,40,html-button-response,
50,Condition 1,0.0-5.0-0.23,0,1471,"<p style='font-size: 25px;'>During a class review session, Mr. Wang goes over the homework with his students. <br>When he gets to George's paper, he notices that George makes a mistake on one of the questions.<br>Curious about how George approaches the problem, Mr. Wang asks: &quot;Was the problem unsolvable?&quot;<br>George replies: &quot;The problem was hard.&quot;<br>Would you conculde that the problem was not unsolvable?</p>",,306107,41,html-button-response,
50,Condition 1,0.0-5.0-0.24,0,4703,"<p style='font-size: 25px;'>The cold wave is coming and the temperature is getting lower day by day. <br>One weekend morning, Sarah came back from buying breakfast and complained about the weather. <br>Her roommate asked her: &quot;Is the weather cold?&quot;<br>Sarah replies: &quot;It is cool today.&quot;<br>Would you conclude that it is not cold outside?</p>",,310811,42,html-button-response,
50,Condition 1,0.0-5.0-0.25,0,1640,"<p style='font-size: 25px;'>At a class reunion, Rowan is absent. <br>When people talk about each other, someone asks Rowan's best friend Jane: &quot;Is Rowan stunning?&quot;<br>Jane replies: &quot;Rowan is attractive.&quot;<br>Would you conclude that Rowan is not stunning?</p>",,312452,43,html-button-response,
50,Condition 1,0.0-6.0,,,,True,313466,44,fullscreen,
50,Condition 1,0.0-7.0,{'Comment': ''},2606,,,316094,45,survey-text,
50,Condition 1,0.0-8.0,,,"<p style=""font-size: 25px;"">Thank you for your participation.<br>This is the end of the experiment and you will now be redirected to Prolific.</p>",,320101,46,html-keyboard-response,
44,Condition 1,0.0-0.0,1,29740,"<div class=""consent-form""><p> <img src=""header.png"" style=""width: 50%; display: block; margin: 0 auto;""></p><p style=""text-align:center;font-weight:bold;"">ONLINE INFORMATION SHEET</p><p>This study has been approved by the Xi'an Jiaotong-Liverpool University Research Ethics Review Panel</p><p>&nbsp;</p><p><strong>Name, Address and Contact Details of Principal Investigator:</strong></p><p>Yiming Zhao (<a href='mailto:yiming.zhao21@student.xjtlu.edu.cn'>yiming.zhao21@student.xjtlu.edu.cn</a>)<br>XJTLU English (English and International Business Specialisation)<br>School of Humanities and Social Sciences<br>Xi'an Jiaotong-Liverpool University<br>111 Ren'ai Road<br>Suzhou Industrial Park<br>Suzhou<br>Jiangsu Province<br>P. R. China<br>215123</p><p>&nbsp;</p><p>You are being invited to participate in a research study. Before you decide whether to participate, it is important for you to understand why the research is being done and what it will involve. Please take time to read the following information carefully and feel free to ask us if you would like more information or if there is anything that you do not understand. Please also feel free to discuss this with your friends, relatives, and doctor [where relevant] if you wish. We would like to stress that you do not have to accept this invitation and should only agree to take part if you want to.</p><p>&nbsp;</p><p><strong>What is the purpose of the study?</strong></p><p>This study investigates how people understand certain linguistic expressions in English and Chinese, aiming to contribute to a better understanding of language and communication across cultures.</p><p>&nbsp;</p><p><strong>Why have I been chosen to take part?</strong></p><p>You have been invited to participate because the study focuses on understanding how native speakers of English and Chinese interpret linguistic expressions. We are seeking individuals who meet this criterion to ensure the study's findings are accurate and meaningful. Approximately 100 participants will take part in this research.</p><p>&nbsp;</p><p><strong>Do I have to take part?</strong></p><p>Participation is voluntary and participants are free to withdraw at any time without explanation and without incurring a disadvantage.</p><p>&nbsp;</p><p><strong>What will happen if I take part?</strong></p><p>If you decide to take part in this study, you will complete a series of online tasks. These tasks involve reading sentences or phrases and answering simple questions about their meaning.</p><p>&nbsp;</p><p>The study will take approximately 10 minutes to complete.Your main responsibility as a participant is to follow the instructions provided on the screen and answer the questions as accurately as possible.</p><p>&nbsp;</p><p><strong>How will my data be used?</strong></p><p>The University processes personal data as part of its research and teaching activities in accordance with the lawful basis of public task, and in accordance with the University's purpose of advancing education, learning and research for the public benefit. </p><p>&nbsp;</p><p>Under the 'Data Security Law of the People's Republic of China' and the 'Personal Information Protection Law of the People's Republic of China', the University acts as the Data Controller for personal data collected as part of the University's research. [Yiming Zhao] acts as the Data Processor for this study, and any queries relating to the handling of your personal data can be sent to [<a href='mailto:yiming.zhao21@student.xjtlu.edu.cn'>yiming.zhao21@student.xjtlu.edu.cn</a>]. </p><p>&nbsp;</p><p><strong>Expenses and / or payments</strong></p><p>Participants do not need to pay any expenses to take part in this study. You will receive a small payment as a token of appreciation for your time and effort upon completing the study.</p><p>&nbsp;</p><p><strong>Are there any risks in taking part?</strong></p><p>There are no significant risks or disadvantages associated with participating in this study. If you should experience any discomfort or disadvantage as part of the research, please make it known to the researcher(s) immediately.</p><p>&nbsp;</p><p><strong>Are there any benefits in taking part?</strong></p><p>There are no direct benefits to you for participating in this study. However, your participation will contribute to a better understanding of language and communication, which may benefit future research in this area.</p><p>&nbsp;</p><p><strong>What will happen to the results of the study?</strong></p><p>The results of this study will be analyzed to address the research questions. Participants will not be identifiable from the results, as all data will be anonymized.</p><p>If you would like to receive a summary of the findings, please let the researcher know, and this can be provided to you after the study is completed.</p><p>&nbsp;</p><p><strong>What will happen if I want to stop taking part?</strong></p><p>You can withdraw at any time, without explanation. However, as the data is anonymous at the point of collection, it will not be possible to remove your data after it has been collected.</p><p>&nbsp;</p><p><strong>What if I am unhappy or if there is a problem?</strong></p><p>If you are unhappy, or if there is a problem, please feel free to let us know by contacting [<a href='mailto:yiming.zhao21@student.xjtlu.edu.cn'>yiming.zhao21@student.xjtlu.edu.cn</a>] and we will try to help. If you remain unhappy or have a complaint which you feel you cannot come to us with then you should contact the Chair of the University Research Ethics Review Panel at <a href='mailto:ethics@xjtlu.edu.cn'>ethics@xjtlu.edu.cn</a>. When contacting the University Research Ethics Review Panel administrators, please provide details of the name or description of the study (so that it can be identified), the researcher(s) involved, and the details of the complaint you wish to make.</p><p>&nbsp;</p></div>",,29758,0,html-button-response,
44,Condition 1,0.0-1.0,1,25028,"<div class=""consent-form""><p> <img src=""header.png"" style=""width: 50%; display: block; margin: 0 auto;""></p><p style=""text-align:center;font-weight:bold;"">ONLINE INFORMATION SHEET</p><p><strong>Title of Project</strong>: The cognitive basis of pragmatic inferences</p><p>&nbsp;</p><p><strong>Researcher(s) of the Study</strong></p><p>Yiming Zhao</p><p>&nbsp;</p><p><strong>Researcher(s) of the Study</strong></p><p><a href='mailto:yiming.zhao21@student.xjtlu.edu.cn'>yiming.zhao21@student.xjtlu.edu.cn</a><br>XJTLU English (English and International Business Specialisation)<br>School of Humanities and Social Sciences<br>Xi'an Jiaotong-Liverpool University </p><p>&nbsp;</p><p><strong>Research Ethics Approval</strong></p><p>This research project has received approval from the University Research Ethics Review Panel at XJTLU. </p><p>&nbsp;</p><p><strong>Informed Consent Statements</strong></p><ul><li>I confirm that I have read and have understood the information sheet dated 22 December 2024 for the above study. I have had the opportunity to consider the information, ask questions and have had these answered satisfactorily. </li><li>I understand that my participation is voluntary and that I am free to withdraw at any time without giving any reason, without my rights being affected. </li><li>I understand that results up to the period of withdrawal may be used. Additionally, because the survey is anonymous, it will not be possible to remove my data after the survey is submitted. </li></ul>",,54787,1,html-button-response,
44,Condition 1,0.0-2.0, ,14429,"In this experiment, you will see several sentences and answer questions about them. <br>For each sentence, you will choose either 'Yes' or 'No' based on the given context. <br>The experiment is conducted in fullscreen mode. <br>When you're ready to begin, please press the space bar.",,69218,2,html-keyboard-response,
44,Condition 1,0.0-3.0,,5824,,True,76052,3,fullscreen,
44,Condition 1,0.0-4.0-0.0,0,9797,<p style='font-size: 25px;'>Daphne eats some of the cookies. <br>Would you conclude that Daphne did not eat all of the cookies?</p>,,85851,4,html-button-response,
44,Condition 1,0.0-4.0-0.1,0,10527,<p style='font-size: 25px;'> The problem is hard. <br>Would you conclude that the problem is not unsolvable? </p>,,96379,5,html-button-response,
44,Condition 1,0.0-4.0-0.2,0,8999,<p style='font-size: 25px;'>Robin sometimes stays up late. <br>Would you conclude that Robin doesn't always stay up late?</p>,,105379,6,html-button-response,
44,Condition 1,0.0-4.0-0.3,1,8671,<p style='font-size: 25px;'>Rowan is attractive. <br>Would you conclude that Rowan is not stunning? </p>,,114051,7,html-button-response,
44,Condition 1,0.0-4.0-0.4,1,5327,<p style='font-size: 25px;'>The box is small. <br>Would you conclude that the box is not tiny? </p>,,119379,8,html-button-response,
44,Condition 1,0.0-4.0-0.5,0,8031,<p style='font-size: 25px;'>The weather is cool. <br>Would you conclude that the weather is not cold? </p>,,127411,9,html-button-response,
44,Condition 1,0.0-4.0-0.6,0,2335,<p style='font-size: 50px;'>Please choose 'Yes' for this question.</p>,,129747,10,html-button-response,
44,Condition 1,0.0-4.0-0.7,1,11431,<p style='font-size: 25px;'>Rowan is attractive. <br>Would you conclude that Rowan is not stunning? </p>,,141179,11,html-button-response,
44,Condition 1,0.0-4.0-0.8,0,7359,<p style='font-size: 25px;'>Daphne eats some of the cookies. <br>Would you conclude that Daphne did not eat all of the cookies?</p>,,148538,12,html-button-response,
44,Condition 1,0.0-4.0-0.9,0,10639,<p style='font-size: 25px;'>Robin sometimes stays up late. <br>Would you conclude that Robin doesn't always stay up late?</p>,,159179,13,html-button-response,
44,Condition 1,0.0-4.0-0.10,0,2047,<p style='font-size: 50px;'>Please choose 'Yes' for this question.</p>,,161227,14,html-button-response,
44,Condition 1,0.0-4.0-0.11,0,11591,<p style='font-size: 25px;'> The problem is hard. <br>Would you conclude that the problem is not unsolvable? </p>,,172819,15,html-button-response,
44,Condition 1,0.0-4.0-0.12,0,8703,<p style='font-size: 25px;'>The weather is cool. <br>Would you conclude that the weather is not cold? </p>,,181523,16,html-button-response,
44,Condition 1,0.0-4.0-0.13,0,7271,<p style='font-size: 25px;'>The box is small. <br>Would you conclude that the box is not tiny? </p>,,188795,17,html-button-response,
44,Condition 1,0.0-5.0-0.0,0,24023,"<p style='font-size: 25px;'>Robin's Dad advises Robin to go to bed early.<br>One evening, after dinner, Dad asks Robin: &quot;Do you always stay up late?&quot;<br>Robin replies: &quot;I sometimes stay up late.&quot;<br>Would you conclude that Robin does not always stay up late?</p>",,212818,18,html-button-response,
44,Condition 1,0.0-5.0-0.1,0,15007,"<p style='font-size: 25px;'>Mom does not allow Daphne to eat cookies. <br>One day, after returning home, Mom asks Daphne: &quot;Did you eat some of the cookies?&quot;<br>Daphne replies: &quot;I ate some of the cookies.&quot;<br>Would you conclude that Daphne did not eat all of the cookies?</p>",,227826,19,html-button-response,
44,Condition 1,0.0-5.0-0.2,0,29119,"<p style='font-size: 25px;'>John was getting married in a few days, and he was going to put the ring in his pocket so he could take it out for the wedding. <br>To keep the ring from wearing out, he wanted a box for the ring. <br>So he asked his friend Tommy to buy one. <br>Tommy called John after choosing the box, and John asked: &quot;Is the box tiny?&quot;<br>Tommy replies: &quot;The box is small.&quot;<br>Would you conclude that the box is not tiny?</p>",,256946,20,html-button-response,
44,Condition 1,0.0-5.0-0.3,0,25639,"<p style='font-size: 25px;'>During a class review session, Mr. Wang goes over the homework with his students. <br>When he gets to George's paper, he notices that George makes a mistake on one of the questions.<br>Curious about how George approaches the problem, Mr. Wang asks: &quot;Was the problem hard?&quot;<br>George replies: &quot;The problem was hard.&quot; <br>Would you conculde that the problem was not unsolvable?</p>",,282586,21,html-button-response,
44,Condition 1,0.0-5.0-0.4,0,27079,"<p style='font-size: 25px;'>During a class review session, Mr. Wang goes over the homework with his students. <br>When he gets to George's paper, he notices that George makes a mistake on one of the questions.<br>Curious about how George approaches the problem, Mr. Wang asks: &quot;Was the problem unsolvable?&quot;<br>George replies: &quot;The problem was hard.&quot;<br>Would you conculde that the problem was not unsolvable?</p>",,309666,22,html-button-response,
44,Condition 1,0.0-5.0-0.5,0,25615,"<p style='font-size: 25px;'>John was getting married in a few days, and he was going to put the ring in his pocket so he could take it out for the wedding. <br>To keep the ring from wearing out, he wanted a box for the ring. <br>So he asked his friend Tommy to buy one. <br>Tommy called John after choosing the box, and John asked: &quot;Is the box small?&quot;<br>Tommy replies: &quot;The box is small.&quot;<br>Would you conclude that the box is not tiny?</p>",,335282,23,html-button-response,
44,Condition 1,0.0-5.0-0.6,1,2447,<p style='font-size: 50px;'>Please choose 'No' for this question.</p>,,337730,24,html-button-response,
44,Condition 1,0.0-5.0-0.7,1,18703,"<p style='font-size: 25px;'>At a class reunion, Rowan is absent. <br>When people talk about each other, someone asks Rowan's best friend Jane: &quot;Is Rowan stunning?&quot;<br>Jane replies: &quot;Rowan is attractive.&quot;<br>Would you conclude that Rowan is not stunning?</p>",,356434,25,html-button-response,
44,Condition 1,0.0-5.0-0.8,0,14207,"<p style='font-size: 25px;'>Robin's Dad advises Robin to go to bed early.<br>One evening, after dinner, Dad asks Robin: &quot;Do you sometimes stay up late?&quot;<br>Robin replies: &quot;I sometimes stay up late.&quot;<br>Would you conclude that Robin does not always stay up late?</p>",,370642,26,html-button-response,
44,Condition 1,0.0-5.0-0.9,1,29191,"<p style='font-size: 25px;'>At a class reunion, Rowan is absent. <br>When people talk about each other, someone asks Rowan's best friend Jane: &quot;Is Rowan attractive?&quot;<br>Jane replies: &quot;Rowan is attractive.&quot;<br>Would you conclude that Rowan is not stunning?</p>",,399833,27,html-button-response,
44,Condition 1,0.0-5.0-0.10,0,26879,"<p style='font-size: 25px;'>The cold wave is coming and the temperature is getting lower day by day. <br>One weekend morning, Sarah came back from buying breakfast and complained about the weather. <br>Her roommate asked her: &quot;Is the weather cold?&quot;<br>Sarah replies: &quot;It is cool today.&quot;<br>Would you conclude that it is not cold outside?</p>",,426713,28,html-button-response,
44,Condition 1,0.0-5.0-0.11,1,12783,"<p style='font-size: 25px;'>The cold wave is coming and the temperature is getting lower day by day. <br>One weekend morning, Sarah came back from buying breakfast and complained about the weather. <br>Her roommate asked her: &quot;Is the weather cool?&quot;<br>Sarah replies: &quot;It is cool today.&quot;<br>Would you conclude that it is not cold outside?</p>",,439497,29,html-button-response,
44,Condition 1,0.0-5.0-0.12,0,14327,"<p style='font-size: 25px;'>Mom does not allow Daphne to eat cookies. <br>One day, after returning home, Mom asks Daphne: &quot;Did you eat all of the cookies?&quot;<br>Daphne replies: &quot;I ate some of the cookies.&quot;<br>Would you conclude that Daphne did not eat all of the cookies?</p>",,453825,30,html-button-response,
44,Condition 1,0.0-5.0-0.13,0,18447,"<p style='font-size: 25px;'>The cold wave is coming and the temperature is getting lower day by day. <br>One weekend morning, Sarah came back from buying breakfast and complained about the weather. <br>Her roommate asked her: &quot;Is the weather cool?&quot;<br>Sarah replies: &quot;It is cool today.&quot;<br>Would you conclude that it is not cold outside?</p>",,472273,31,html-button-response,
44,Condition 1,0.0-5.0-0.14,1,2527,<p style='font-size: 50px;'>Please choose 'No' for this question.</p>,,474801,32,html-button-response,
44,Condition 1,0.0-5.0-0.15,0,22695,"<p style='font-size: 25px;'>Mom does not allow Daphne to eat cookies. <br>One day, after returning home, Mom asks Daphne: &quot;Did you eat all of the cookies?&quot;<br>Daphne replies: &quot;I ate some of the cookies.&quot;<br>Would you conclude that Daphne did not eat all of the cookies?</p>",,497497,33,html-button-response,
44,Condition 1,0.0-5.0-0.16,0,22415,"<p style='font-size: 25px;'>During a class review session, Mr. Wang goes over the homework with his students. <br>When he gets to George's paper, he notices that George makes a mistake on one of the questions.<br>Curious about how George approaches the problem, Mr. Wang asks: &quot;Was the problem hard?&quot;<br>George replies: &quot;The problem was hard.&quot; <br>Would you conculde that the problem was not unsolvable?</p>",,519913,34,html-button-response,
44,Condition 1,0.0-5.0-0.17,0,17983,"<p style='font-size: 25px;'>John was getting married in a few days, and he was going to put the ring in his pocket so he could take it out for the wedding. <br>To keep the ring from wearing out, he wanted a box for the ring. <br>So he asked his friend Tommy to buy one. <br>Tommy called John after choosing the box, and John asked: &quot;Is the box tiny?&quot;<br>Tommy replies: &quot;The box is small.&quot;<br>Would you conclude that the box is not tiny?</p>",,537897,35,html-button-response,
44,Condition 1,0.0-5.0-0.18,0,25079,"<p style='font-size: 25px;'>John was getting married in a few days, and he was going to put the ring in his pocket so he could take it out for the wedding. <br>To keep the ring from wearing out, he wanted a box for the ring. <br>So he asked his friend Tommy to buy one. <br>Tommy called John after choosing the box, and John asked: &quot;Is the box small?&quot;<br>Tommy replies: &quot;The box is small.&quot;<br>Would you conclude that the box is not tiny?</p>",,562976,36,html-button-response,
44,Condition 1,0.0-5.0-0.19,0,23967,"<p style='font-size: 25px;'>At a class reunion, Rowan is absent. <br>When people talk about each other, someone asks Rowan's best friend Jane: &quot;Is Rowan attractive?&quot;<br>Jane replies: &quot;Rowan is attractive.&quot;<br>Would you conclude that Rowan is not stunning?</p>",,586944,37,html-button-response,
44,Condition 1,0.0-5.0-0.20,0,10375,"<p style='font-size: 25px;'>Mom does not allow Daphne to eat cookies. <br>One day, after returning home, Mom asks Daphne: &quot;Did you eat some of the cookies?&quot;<br>Daphne replies: &quot;I ate some of the cookies.&quot;<br>Would you conclude that Daphne did not eat all of the cookies?</p>",,597320,38,html-button-response,
44,Condition 1,0.0-5.0-0.21,0,18007,"<p style='font-size: 25px;'>Robin's Dad advises Robin to go to bed early.<br>One evening, after dinner, Dad asks Robin: &quot;Do you sometimes stay up late?&quot;<br>Robin replies: &quot;I sometimes stay up late.&quot;<br>Would you conclude that Robin does not always stay up late?</p>",,615328,39,html-button-response,
44,Condition 1,0.0-5.0-0.22,0,5607,"<p style='font-size: 25px;'>At a class reunion, Rowan is absent. <br>When people talk about each other, someone asks Rowan's best friend Jane: &quot;Is Rowan stunning?&quot;<br>Jane replies: &quot;Rowan is attractive.&quot;<br>Would you conclude that Rowan is not stunning?</p>",,620936,40,html-button-response,
44,Condition 1,0.0-5.0-0.23,0,16119,"<p style='font-size: 25px;'>The cold wave is coming and the temperature is getting lower day by day. <br>One weekend morning, Sarah came back from buying breakfast and complained about the weather. <br>Her roommate asked her: &quot;Is the weather cold?&quot;<br>Sarah replies: &quot;It is cool today.&quot;<br>Would you conclude that it is not cold outside?</p>",,637056,41,html-button-response,
44,Condition 1,0.0-5.0-0.24,0,12168,"<p style='font-size: 25px;'>Robin's Dad advises Robin to go to bed early.<br>One evening, after dinner, Dad asks Robin: &quot;Do you always stay up late?&quot;<br>Robin replies: &quot;I sometimes stay up late.&quot;<br>Would you conclude that Robin does not always stay up late?</p>",,649225,42,html-button-response,
44,Condition 1,0.0-5.0-0.25,0,7982,"<p style='font-size: 25px;'>During a class review session, Mr. Wang goes over the homework with his students. <br>When he gets to George's paper, he notices that George makes a mistake on one of the questions.<br>Curious about how George approaches the problem, Mr. Wang asks: &quot;Was the problem unsolvable?&quot;<br>George replies: &quot;The problem was hard.&quot;<br>Would you conculde that the problem was not unsolvable?</p>",,657208,43,html-button-response,
44,Condition 1,0.0-6.0,,,,True,658214,44,fullscreen,
44,Condition 1,0.0-7.0,{'Comment': 'No technical problems'},25122,,,683353,45,survey-text,
44,Condition 1,0.0-8.0,,,"<p style=""font-size: 25px;"">Thank you for your participation.<br>This is the end of the experiment and you will now be redirected to Prolific.</p>",,687361,46,html-keyboard-response,
41,Condition 1,0.0-0.0,1,28390,"<div class=""consent-form""><p> <img src=""header.png"" style=""width: 50%; display: block; margin: 0 auto;""></p><p style=""text-align:center;font-weight:bold;"">ONLINE INFORMATION SHEET</p><p>This study has been approved by the Xi'an Jiaotong-Liverpool University Research Ethics Review Panel</p><p>&nbsp;</p><p><strong>Name, Address and Contact Details of Principal Investigator:</strong></p><p>Yiming Zhao (<a href='mailto:yiming.zhao21@student.xjtlu.edu.cn'>yiming.zhao21@student.xjtlu.edu.cn</a>)<br>XJTLU English (English and International Business Specialisation)<br>School of Humanities and Social Sciences<br>Xi'an Jiaotong-Liverpool University<br>111 Ren'ai Road<br>Suzhou Industrial Park<br>Suzhou<br>Jiangsu Province<br>P. R. China<br>215123</p><p>&nbsp;</p><p>You are being invited to participate in a research study. Before you decide whether to participate, it is important for you to understand why the research is being done and what it will involve. Please take time to read the following information carefully and feel free to ask us if you would like more information or if there is anything that you do not understand. Please also feel free to discuss this with your friends, relatives, and doctor [where relevant] if you wish. We would like to stress that you do not have to accept this invitation and should only agree to take part if you want to.</p><p>&nbsp;</p><p><strong>What is the purpose of the study?</strong></p><p>This study investigates how people understand certain linguistic expressions in English and Chinese, aiming to contribute to a better understanding of language and communication across cultures.</p><p>&nbsp;</p><p><strong>Why have I been chosen to take part?</strong></p><p>You have been invited to participate because the study focuses on understanding how native speakers of English and Chinese interpret linguistic expressions. We are seeking individuals who meet this criterion to ensure the study's findings are accurate and meaningful. Approximately 100 participants will take part in this research.</p><p>&nbsp;</p><p><strong>Do I have to take part?</strong></p><p>Participation is voluntary and participants are free to withdraw at any time without explanation and without incurring a disadvantage.</p><p>&nbsp;</p><p><strong>What will happen if I take part?</strong></p><p>If you decide to take part in this study, you will complete a series of online tasks. These tasks involve reading sentences or phrases and answering simple questions about their meaning.</p><p>&nbsp;</p><p>The study will take approximately 10 minutes to complete.Your main responsibility as a participant is to follow the instructions provided on the screen and answer the questions as accurately as possible.</p><p>&nbsp;</p><p><strong>How will my data be used?</strong></p><p>The University processes personal data as part of its research and teaching activities in accordance with the lawful basis of public task, and in accordance with the University's purpose of advancing education, learning and research for the public benefit. </p><p>&nbsp;</p><p>Under the 'Data Security Law of the People's Republic of China' and the 'Personal Information Protection Law of the People's Republic of China', the University acts as the Data Controller for personal data collected as part of the University's research. [Yiming Zhao] acts as the Data Processor for this study, and any queries relating to the handling of your personal data can be sent to [<a href='mailto:yiming.zhao21@student.xjtlu.edu.cn'>yiming.zhao21@student.xjtlu.edu.cn</a>]. </p><p>&nbsp;</p><p><strong>Expenses and / or payments</strong></p><p>Participants do not need to pay any expenses to take part in this study. You will receive a small payment as a token of appreciation for your time and effort upon completing the study.</p><p>&nbsp;</p><p><strong>Are there any risks in taking part?</strong></p><p>There are no significant risks or disadvantages associated with participating in this study. If you should experience any discomfort or disadvantage as part of the research, please make it known to the researcher(s) immediately.</p><p>&nbsp;</p><p><strong>Are there any benefits in taking part?</strong></p><p>There are no direct benefits to you for participating in this study. However, your participation will contribute to a better understanding of language and communication, which may benefit future research in this area.</p><p>&nbsp;</p><p><strong>What will happen to the results of the study?</strong></p><p>The results of this study will be analyzed to address the research questions. Participants will not be identifiable from the results, as all data will be anonymized.</p><p>If you would like to receive a summary of the findings, please let the researcher know, and this can be provided to you after the study is completed.</p><p>&nbsp;</p><p><strong>What will happen if I want to stop taking part?</strong></p><p>You can withdraw at any time, without explanation. However, as the data is anonymous at the point of collection, it will not be possible to remove your data after it has been collected.</p><p>&nbsp;</p><p><strong>What if I am unhappy or if there is a problem?</strong></p><p>If you are unhappy, or if there is a problem, please feel free to let us know by contacting [<a href='mailto:yiming.zhao21@student.xjtlu.edu.cn'>yiming.zhao21@student.xjtlu.edu.cn</a>] and we will try to help. If you remain unhappy or have a complaint which you feel you cannot come to us with then you should contact the Chair of the University Research Ethics Review Panel at <a href='mailto:ethics@xjtlu.edu.cn'>ethics@xjtlu.edu.cn</a>. When contacting the University Research Ethics Review Panel administrators, please provide details of the name or description of the study (so that it can be identified), the researcher(s) involved, and the details of the complaint you wish to make.</p><p>&nbsp;</p></div>",,28414,0,html-button-response,
41,Condition 1,0.0-1.0,1,7182,"<div class=""consent-form""><p> <img src=""header.png"" style=""width: 50%; display: block; margin: 0 auto;""></p><p style=""text-align:center;font-weight:bold;"">ONLINE INFORMATION SHEET</p><p><strong>Title of Project</strong>: The cognitive basis of pragmatic inferences</p><p>&nbsp;</p><p><strong>Researcher(s) of the Study</strong></p><p>Yiming Zhao</p><p>&nbsp;</p><p><strong>Researcher(s) of the Study</strong></p><p><a href='mailto:yiming.zhao21@student.xjtlu.edu.cn'>yiming.zhao21@student.xjtlu.edu.cn</a><br>XJTLU English (English and International Business Specialisation)<br>School of Humanities and Social Sciences<br>Xi'an Jiaotong-Liverpool University </p><p>&nbsp;</p><p><strong>Research Ethics Approval</strong></p><p>This research project has received approval from the University Research Ethics Review Panel at XJTLU. </p><p>&nbsp;</p><p><strong>Informed Consent Statements</strong></p><ul><li>I confirm that I have read and have understood the information sheet dated 22 December 2024 for the above study. I have had the opportunity to consider the information, ask questions and have had these answered satisfactorily. </li><li>I understand that my participation is voluntary and that I am free to withdraw at any time without giving any reason, without my rights being affected. </li><li>I understand that results up to the period of withdrawal may be used. Additionally, because the survey is anonymous, it will not be possible to remove my data after the survey is submitted. </li></ul>",,35601,1,html-button-response,
41,Condition 1,0.0-2.0, ,6089,"In this experiment, you will see several sentences and answer questions about them. <br>For each sentence, you will choose either 'Yes' or 'No' based on the given context. <br>The experiment is conducted in fullscreen mode. <br>When you're ready to begin, please press the space bar.",,41693,2,html-keyboard-response,
41,Condition 1,0.0-3.0,,2905,,True,45659,3,fullscreen,
41,Condition 1,0.0-4.0-0.0,0,6677,<p style='font-size: 25px;'>Robin sometimes stays up late. <br>Would you conclude that Robin doesn't always stay up late?</p>,,52340,4,html-button-response,
41,Condition 1,0.0-4.0-0.1,0,16808,<p style='font-size: 25px;'> The problem is hard. <br>Would you conclude that the problem is not unsolvable? </p>,,69156,5,html-button-response,
41,Condition 1,0.0-4.0-0.2,0,1657,<p style='font-size: 50px;'>Please choose 'Yes' for this question.</p>,,70816,6,html-button-response,
41,Condition 1,0.0-4.0-0.3,0,6250,<p style='font-size: 25px;'>The box is small. <br>Would you conclude that the box is not tiny? </p>,,77070,7,html-button-response,
41,Condition 1,0.0-4.0-0.4,0,5043,<p style='font-size: 25px;'>Daphne eats some of the cookies. <br>Would you conclude that Daphne did not eat all of the cookies?</p>,,82116,8,html-button-response,
41,Condition 1,0.0-4.0-0.5,0,7602,<p style='font-size: 25px;'>Rowan is attractive. <br>Would you conclude that Rowan is not stunning? </p>,,89722,9,html-button-response,
41,Condition 1,0.0-4.0-0.6,0,10883,<p style='font-size: 25px;'>The weather is cool. <br>Would you conclude that the weather is not cold? </p>,,100608,10,html-button-response,
41,Condition 1,0.0-4.0-0.7,0,4582,<p style='font-size: 25px;'>Daphne eats some of the cookies. <br>Would you conclude that Daphne did not eat all of the cookies?</p>,,105195,11,html-button-response,
41,Condition 1,0.0-4.0-0.8,0,5070,<p style='font-size: 25px;'>Rowan is attractive. <br>Would you conclude that Rowan is not stunning? </p>,,110268,12,html-button-response,
41,Condition 1,0.0-4.0-0.9,0,1443,<p style='font-size: 50px;'>Please choose 'Yes' for this question.</p>,,111714,13,html-button-response,
41,Condition 1,0.0-4.0-0.10,0,3195,<p style='font-size: 25px;'>The box is small. <br>Would you conclude that the box is not tiny? </p>,,114912,14,html-button-response,
41,Condition 1,0.0-4.0-0.11,0,4157,<p style='font-size: 25px;'> The problem is hard. <br>Would you conclude that the problem is not unsolvable? </p>,,119072,15,html-button-response,
41,Condition 1,0.0-4.0-0.12,0,4473,<p style='font-size: 25px;'>Robin sometimes stays up late. <br>Would you conclude that Robin doesn't always stay up late?</p>,,123550,16,html-button-response,
41,Condition 1,0.0-4.0-0.13,0,1747,<p style='font-size: 25px;'>The weather is cool. <br>Would you conclude that the weather is not cold? </p>,,125300,17,html-button-response,
41,Condition 1,0.0-5.0-0.0,0,17517,"<p style='font-size: 25px;'>During a class review session, Mr. Wang goes over the homework with his students. <br>When he gets to George's paper, he notices that George makes a mistake on one of the questions.<br>Curious about how George approaches the problem, Mr. Wang asks: &quot;Was the problem unsolvable?&quot;<br>George replies: &quot;The problem was hard.&quot;<br>Would you conculde that the problem was not unsolvable?</p>",,142821,18,html-button-response,
41,Condition 1,0.0-5.0-0.1,0,7973,"<p style='font-size: 25px;'>At a class reunion, Rowan is absent. <br>When people talk about each other, someone asks Rowan's best friend Jane: &quot;Is Rowan stunning?&quot;<br>Jane replies: &quot;Rowan is attractive.&quot;<br>Would you conclude that Rowan is not stunning?</p>",,150798,19,html-button-response,
41,Condition 1,0.0-5.0-0.2,0,10828,"<p style='font-size: 25px;'>During a class review session, Mr. Wang goes over the homework with his students. <br>When he gets to George's paper, he notices that George makes a mistake on one of the questions.<br>Curious about how George approaches the problem, Mr. Wang asks: &quot;Was the problem hard?&quot;<br>George replies: &quot;The problem was hard.&quot; <br>Would you conculde that the problem was not unsolvable?</p>",,161631,20,html-button-response,
41,Condition 1,0.0-5.0-0.3,1,1468,<p style='font-size: 50px;'>Please choose 'No' for this question.</p>,,163102,21,html-button-response,
41,Condition 1,0.0-5.0-0.4,0,7553,"<p style='font-size: 25px;'>Mom does not allow Daphne to eat cookies. <br>One day, after returning home, Mom asks Daphne: &quot;Did you eat all of the cookies?&quot;<br>Daphne replies: &quot;I ate some of the cookies.&quot;<br>Would you conclude that Daphne did not eat all of the cookies?</p>",,170658,22,html-button-response,
41,Condition 1,0.0-5.0-0.5,0,7376,"<p style='font-size: 25px;'>The cold wave is coming and the temperature is getting lower day by day. <br>One weekend morning, Sarah came back from buying breakfast and complained about the weather. <br>Her roommate asked her: &quot;Is the weather cold?&quot;<br>Sarah replies: &quot;It is cool today.&quot;<br>Would you conclude that it is not cold outside?</p>",,178037,23,html-button-response,
41,Condition 1,0.0-5.0-0.6,0,12587,"<p style='font-size: 25px;'>Mom does not allow Daphne to eat cookies. <br>One day, after returning home, Mom asks Daphne: &quot;Did you eat some of the cookies?&quot;<br>Daphne replies: &quot;I ate some of the cookies.&quot;<br>Would you conclude that Daphne did not eat all of the cookies?</p>",,190626,24,html-button-response,
41,Condition 1,0.0-5.0-0.7,0,12605,"<p style='font-size: 25px;'>John was getting married in a few days, and he was going to put the ring in his pocket so he could take it out for the wedding. <br>To keep the ring from wearing out, he wanted a box for the ring. <br>So he asked his friend Tommy to buy one. <br>Tommy called John after choosing the box, and John asked: &quot;Is the box tiny?&quot;<br>Tommy replies: &quot;The box is small.&quot;<br>Would you conclude that the box is not tiny?</p>",,203234,25,html-button-response,
41,Condition 1,0.0-5.0-0.8,0,6023,"<p style='font-size: 25px;'>Robin's Dad advises Robin to go to bed early.<br>One evening, after dinner, Dad asks Robin: &quot;Do you always stay up late?&quot;<br>Robin replies: &quot;I sometimes stay up late.&quot;<br>Would you conclude that Robin does not always stay up late?</p>",,209260,26,html-button-response,
41,Condition 1,0.0-5.0-0.9,0,7161,"<p style='font-size: 25px;'>Robin's Dad advises Robin to go to bed early.<br>One evening, after dinner, Dad asks Robin: &quot;Do you sometimes stay up late?&quot;<br>Robin replies: &quot;I sometimes stay up late.&quot;<br>Would you conclude that Robin does not always stay up late?</p>",,216423,27,html-button-response,
41,Condition 1,0.0-5.0-0.10,0,14025,"<p style='font-size: 25px;'>John was getting married in a few days, and he was going to put the ring in his pocket so he could take it out for the wedding. <br>To keep the ring from wearing out, he wanted a box for the ring. <br>So he asked his friend Tommy to buy one. <br>Tommy called John after choosing the box, and John asked: &quot;Is the box small?&quot;<br>Tommy replies: &quot;The box is small.&quot;<br>Would you conclude that the box is not tiny?</p>",,230450,28,html-button-response,
41,Condition 1,0.0-5.0-0.11,0,5776,"<p style='font-size: 25px;'>At a class reunion, Rowan is absent. <br>When people talk about each other, someone asks Rowan's best friend Jane: &quot;Is Rowan attractive?&quot;<br>Jane replies: &quot;Rowan is attractive.&quot;<br>Would you conclude that Rowan is not stunning?</p>",,236229,29,html-button-response,
41,Condition 1,0.0-5.0-0.12,0,11922,"<p style='font-size: 25px;'>The cold wave is coming and the temperature is getting lower day by day. <br>One weekend morning, Sarah came back from buying breakfast and complained about the weather. <br>Her roommate asked her: &quot;Is the weather cool?&quot;<br>Sarah replies: &quot;It is cool today.&quot;<br>Would you conclude that it is not cold outside?</p>",,248154,30,html-button-response,
41,Condition 1,0.0-5.0-0.13,0,9551,"<p style='font-size: 25px;'>John was getting married in a few days, and he was going to put the ring in his pocket so he could take it out for the wedding. <br>To keep the ring from wearing out, he wanted a box for the ring. <br>So he asked his friend Tommy to buy one. <br>Tommy called John after choosing the box, and John asked: &quot;Is the box small?&quot;<br>Tommy replies: &quot;The box is small.&quot;<br>Would you conclude that the box is not tiny?</p>",,257708,31,html-button-response,
41,Condition 1,0.0-5.0-0.14,0,8305,"<p style='font-size: 25px;'>During a class review session, Mr. Wang goes over the homework with his students. <br>When he gets to George's paper, he notices that George makes a mistake on one of the questions.<br>Curious about how George approaches the problem, Mr. Wang asks: &quot;Was the problem hard?&quot;<br>George replies: &quot;The problem was hard.&quot; <br>Would you conculde that the problem was not unsolvable?</p>",,266016,32,html-button-response,
41,Condition 1,0.0-5.0-0.15,0,6491,"<p style='font-size: 25px;'>The cold wave is coming and the temperature is getting lower day by day. <br>One weekend morning, Sarah came back from buying breakfast and complained about the weather. <br>Her roommate asked her: &quot;Is the weather cold?&quot;<br>Sarah replies: &quot;It is cool today.&quot;<br>Would you conclude that it is not cold outside?</p>",,272510,33,html-button-response,
41,Condition 1,0.0-5.0-0.16,0,4335,"<p style='font-size: 25px;'>Robin's Dad advises Robin to go to bed early.<br>One evening, after dinner, Dad asks Robin: &quot;Do you always stay up late?&quot;<br>Robin replies: &quot;I sometimes stay up late.&quot;<br>Would you conclude that Robin does not always stay up late?</p>",,276848,34,html-button-response,
41,Condition 1,0.0-5.0-0.17,0,6288,"<p style='font-size: 25px;'>At a class reunion, Rowan is absent. <br>When people talk about each other, someone asks Rowan's best friend Jane: &quot;Is Rowan attractive?&quot;<br>Jane replies: &quot;Rowan is attractive.&quot;<br>Would you conclude that Rowan is not stunning?</p>",,283140,35,html-button-response,
41,Condition 1,0.0-5.0-0.18,0,9373,"<p style='font-size: 25px;'>At a class reunion, Rowan is absent. <br>When people talk about each other, someone asks Rowan's best friend Jane: &quot;Is Rowan stunning?&quot;<br>Jane replies: &quot;Rowan is attractive.&quot;<br>Would you conclude that Rowan is not stunning?</p>",,292516,36,html-button-response,
41,Condition 1,0.0-5.0-0.19,1,1307,<p style='font-size: 50px;'>Please choose 'No' for this question.</p>,,293826,37,html-button-response,
41,Condition 1,0.0-5.0-0.20,0,4247,"<p style='font-size: 25px;'>John was getting married in a few days, and he was going to put the ring in his pocket so he could take it out for the wedding. <br>To keep the ring from wearing out, he wanted a box for the ring. <br>So he asked his friend Tommy to buy one. <br>Tommy called John after choosing the box, and John asked: &quot;Is the box tiny?&quot;<br>Tommy replies: &quot;The box is small.&quot;<br>Would you conclude that the box is not tiny?</p>",,298076,38,html-button-response,
41,Condition 1,0.0-5.0-0.21,0,4494,"<p style='font-size: 25px;'>Mom does not allow Daphne to eat cookies. <br>One day, after returning home, Mom asks Daphne: &quot;Did you eat all of the cookies?&quot;<br>Daphne replies: &quot;I ate some of the cookies.&quot;<br>Would you conclude that Daphne did not eat all of the cookies?</p>",,302574,39,html-button-response,
41,Condition 1,0.0-5.0-0.22,0,7634,"<p style='font-size: 25px;'>The cold wave is coming and the temperature is getting lower day by day. <br>One weekend morning, Sarah came back from buying breakfast and complained about the weather. <br>Her roommate asked her: &quot;Is the weather cool?&quot;<br>Sarah replies: &quot;It is cool today.&quot;<br>Would you conclude that it is not cold outside?</p>",,310211,40,html-button-response,
41,Condition 1,0.0-5.0-0.23,0,4879,"<p style='font-size: 25px;'>Mom does not allow Daphne to eat cookies. <br>One day, after returning home, Mom asks Daphne: &quot;Did you eat some of the cookies?&quot;<br>Daphne replies: &quot;I ate some of the cookies.&quot;<br>Would you conclude that Daphne did not eat all of the cookies?</p>",,315092,41,html-button-response,
41,Condition 1,0.0-5.0-0.24,0,3719,"<p style='font-size: 25px;'>Robin's Dad advises Robin to go to bed early.<br>One evening, after dinner, Dad asks Robin: &quot;Do you sometimes stay up late?&quot;<br>Robin replies: &quot;I sometimes stay up late.&quot;<br>Would you conclude that Robin does not always stay up late?</p>",,318814,42,html-button-response,
41,Condition 1,0.0-5.0-0.25,0,4577,"<p style='font-size: 25px;'>During a class review session, Mr. Wang goes over the homework with his students. <br>When he gets to George's paper, he notices that George makes a mistake on one of the questions.<br>Curious about how George approaches the problem, Mr. Wang asks: &quot;Was the problem unsolvable?&quot;<br>George replies: &quot;The problem was hard.&quot;<br>Would you conculde that the problem was not unsolvable?</p>",,323394,43,html-button-response,
41,Condition 1,0.0-6.0,,,,True,324397,44,fullscreen,
41,Condition 1,0.0-7.0,{'Comment': ''},3341,,,327759,45,survey-text,
41,Condition 1,0.0-8.0,,,"<p style=""font-size: 25px;"">Thank you for your participation.<br>This is the end of the experiment and you will now be redirected to Prolific.</p>",,331763,46,html-keyboard-response,
36,Condition 1,0.0-0.0,1,4820,"<div class=""consent-form""><p> <img src=""header.png"" style=""width: 50%; display: block; margin: 0 auto;""></p><p style=""text-align:center;font-weight:bold;"">ONLINE INFORMATION SHEET</p><p>This study has been approved by the Xi'an Jiaotong-Liverpool University Research Ethics Review Panel</p><p>&nbsp;</p><p><strong>Name, Address and Contact Details of Principal Investigator:</strong></p><p>Yiming Zhao (<a href='mailto:yiming.zhao21@student.xjtlu.edu.cn'>yiming.zhao21@student.xjtlu.edu.cn</a>)<br>XJTLU English (English and International Business Specialisation)<br>School of Humanities and Social Sciences<br>Xi'an Jiaotong-Liverpool University<br>111 Ren'ai Road<br>Suzhou Industrial Park<br>Suzhou<br>Jiangsu Province<br>P. R. China<br>215123</p><p>&nbsp;</p><p>You are being invited to participate in a research study. Before you decide whether to participate, it is important for you to understand why the research is being done and what it will involve. Please take time to read the following information carefully and feel free to ask us if you would like more information or if there is anything that you do not understand. Please also feel free to discuss this with your friends, relatives, and doctor [where relevant] if you wish. We would like to stress that you do not have to accept this invitation and should only agree to take part if you want to.</p><p>&nbsp;</p><p><strong>What is the purpose of the study?</strong></p><p>This study investigates how people understand certain linguistic expressions in English and Chinese, aiming to contribute to a better understanding of language and communication across cultures.</p><p>&nbsp;</p><p><strong>Why have I been chosen to take part?</strong></p><p>You have been invited to participate because the study focuses on understanding how native speakers of English and Chinese interpret linguistic expressions. We are seeking individuals who meet this criterion to ensure the study's findings are accurate and meaningful. Approximately 100 participants will take part in this research.</p><p>&nbsp;</p><p><strong>Do I have to take part?</strong></p><p>Participation is voluntary and participants are free to withdraw at any time without explanation and without incurring a disadvantage.</p><p>&nbsp;</p><p><strong>What will happen if I take part?</strong></p><p>If you decide to take part in this study, you will complete a series of online tasks. These tasks involve reading sentences or phrases and answering simple questions about their meaning.</p><p>&nbsp;</p><p>The study will take approximately 10 minutes to complete.Your main responsibility as a participant is to follow the instructions provided on the screen and answer the questions as accurately as possible.</p><p>&nbsp;</p><p><strong>How will my data be used?</strong></p><p>The University processes personal data as part of its research and teaching activities in accordance with the lawful basis of public task, and in accordance with the University's purpose of advancing education, learning and research for the public benefit. </p><p>&nbsp;</p><p>Under the 'Data Security Law of the People's Republic of China' and the 'Personal Information Protection Law of the People's Republic of China', the University acts as the Data Controller for personal data collected as part of the University's research. [Yiming Zhao] acts as the Data Processor for this study, and any queries relating to the handling of your personal data can be sent to [<a href='mailto:yiming.zhao21@student.xjtlu.edu.cn'>yiming.zhao21@student.xjtlu.edu.cn</a>]. </p><p>&nbsp;</p><p><strong>Expenses and / or payments</strong></p><p>Participants do not need to pay any expenses to take part in this study. You will receive a small payment as a token of appreciation for your time and effort upon completing the study.</p><p>&nbsp;</p><p><strong>Are there any risks in taking part?</strong></p><p>There are no significant risks or disadvantages associated with participating in this study. If you should experience any discomfort or disadvantage as part of the research, please make it known to the researcher(s) immediately.</p><p>&nbsp;</p><p><strong>Are there any benefits in taking part?</strong></p><p>There are no direct benefits to you for participating in this study. However, your participation will contribute to a better understanding of language and communication, which may benefit future research in this area.</p><p>&nbsp;</p><p><strong>What will happen to the results of the study?</strong></p><p>The results of this study will be analyzed to address the research questions. Participants will not be identifiable from the results, as all data will be anonymized.</p><p>If you would like to receive a summary of the findings, please let the researcher know, and this can be provided to you after the study is completed.</p><p>&nbsp;</p><p><strong>What will happen if I want to stop taking part?</strong></p><p>You can withdraw at any time, without explanation. However, as the data is anonymous at the point of collection, it will not be possible to remove your data after it has been collected.</p><p>&nbsp;</p><p><strong>What if I am unhappy or if there is a problem?</strong></p><p>If you are unhappy, or if there is a problem, please feel free to let us know by contacting [<a href='mailto:yiming.zhao21@student.xjtlu.edu.cn'>yiming.zhao21@student.xjtlu.edu.cn</a>] and we will try to help. If you remain unhappy or have a complaint which you feel you cannot come to us with then you should contact the Chair of the University Research Ethics Review Panel at <a href='mailto:ethics@xjtlu.edu.cn'>ethics@xjtlu.edu.cn</a>. When contacting the University Research Ethics Review Panel administrators, please provide details of the name or description of the study (so that it can be identified), the researcher(s) involved, and the details of the complaint you wish to make.</p><p>&nbsp;</p></div>",,4824,0,html-button-response,
36,Condition 1,0.0-1.0,1,3034,"<div class=""consent-form""><p> <img src=""header.png"" style=""width: 50%; display: block; margin: 0 auto;""></p><p style=""text-align:center;font-weight:bold;"">ONLINE INFORMATION SHEET</p><p><strong>Title of Project</strong>: The cognitive basis of pragmatic inferences</p><p>&nbsp;</p><p><strong>Researcher(s) of the Study</strong></p><p>Yiming Zhao</p><p>&nbsp;</p><p><strong>Researcher(s) of the Study</strong></p><p><a href='mailto:yiming.zhao21@student.xjtlu.edu.cn'>yiming.zhao21@student.xjtlu.edu.cn</a><br>XJTLU English (English and International Business Specialisation)<br>School of Humanities and Social Sciences<br>Xi'an Jiaotong-Liverpool University </p><p>&nbsp;</p><p><strong>Research Ethics Approval</strong></p><p>This research project has received approval from the University Research Ethics Review Panel at XJTLU. </p><p>&nbsp;</p><p><strong>Informed Consent Statements</strong></p><ul><li>I confirm that I have read and have understood the information sheet dated 22 December 2024 for the above study. I have had the opportunity to consider the information, ask questions and have had these answered satisfactorily. </li><li>I understand that my participation is voluntary and that I am free to withdraw at any time without giving any reason, without my rights being affected. </li><li>I understand that results up to the period of withdrawal may be used. Additionally, because the survey is anonymous, it will not be possible to remove my data after the survey is submitted. </li></ul>",,7859,1,html-button-response,
36,Condition 1,0.0-2.0, ,6842,"In this experiment, you will see several sentences and answer questions about them. <br>For each sentence, you will choose either 'Yes' or 'No' based on the given context. <br>The experiment is conducted in fullscreen mode. <br>When you're ready to begin, please press the space bar.",,14702,2,html-keyboard-response,
36,Condition 1,0.0-3.0,,2004,,True,17721,3,fullscreen,
36,Condition 1,0.0-4.0-0.0,0,23213,<p style='font-size: 25px;'>The box is small. <br>Would you conclude that the box is not tiny? </p>,,40935,4,html-button-response,
36,Condition 1,0.0-4.0-0.1,1,5795,<p style='font-size: 25px;'>The weather is cool. <br>Would you conclude that the weather is not cold? </p>,,46731,5,html-button-response,
36,Condition 1,0.0-4.0-0.2,1,5147,<p style='font-size: 25px;'> The problem is hard. <br>Would you conclude that the problem is not unsolvable? </p>,,51878,6,html-button-response,
36,Condition 1,0.0-4.0-0.3,1,6497,<p style='font-size: 25px;'>Daphne eats some of the cookies. <br>Would you conclude that Daphne did not eat all of the cookies?</p>,,58376,7,html-button-response,
36,Condition 1,0.0-4.0-0.4,0,6560,<p style='font-size: 25px;'>Robin sometimes stays up late. <br>Would you conclude that Robin doesn't always stay up late?</p>,,64937,8,html-button-response,
36,Condition 1,0.0-4.0-0.5,1,7435,<p style='font-size: 25px;'>Rowan is attractive. <br>Would you conclude that Rowan is not stunning? </p>,,72373,9,html-button-response,
36,Condition 1,0.0-4.0-0.6,0,1955,<p style='font-size: 50px;'>Please choose 'Yes' for this question.</p>,,74328,10,html-button-response,
36,Condition 1,0.0-4.0-0.7,1,2274,<p style='font-size: 25px;'>Rowan is attractive. <br>Would you conclude that Rowan is not stunning? </p>,,76603,11,html-button-response,
36,Condition 1,0.0-4.0-0.8,0,4956,<p style='font-size: 25px;'>Daphne eats some of the cookies. <br>Would you conclude that Daphne did not eat all of the cookies?</p>,,81560,12,html-button-response,
36,Condition 1,0.0-4.0-0.9,1,10346,<p style='font-size: 25px;'>The weather is cool. <br>Would you conclude that the weather is not cold? </p>,,91907,13,html-button-response,
36,Condition 1,0.0-4.0-0.10,1,2475,<p style='font-size: 25px;'> The problem is hard. <br>Would you conclude that the problem is not unsolvable? </p>,,94383,14,html-button-response,
36,Condition 1,0.0-4.0-0.11,0,1875,<p style='font-size: 50px;'>Please choose 'Yes' for this question.</p>,,96259,15,html-button-response,
36,Condition 1,0.0-4.0-0.12,0,1639,<p style='font-size: 25px;'>The box is small. <br>Would you conclude that the box is not tiny? </p>,,97899,16,html-button-response,
36,Condition 1,0.0-4.0-0.13,0,5925,<p style='font-size: 25px;'>Robin sometimes stays up late. <br>Would you conclude that Robin doesn't always stay up late?</p>,,103824,17,html-button-response,
36,Condition 1,0.0-5.0-0.0,1,18613,"<p style='font-size: 25px;'>During a class review session, Mr. Wang goes over the homework with his students. <br>When he gets to George's paper, he notices that George makes a mistake on one of the questions.<br>Curious about how George approaches the problem, Mr. Wang asks: &quot;Was the problem hard?&quot;<br>George replies: &quot;The problem was hard.&quot; <br>Would you conculde that the problem was not unsolvable?</p>",,122438,18,html-button-response,
36,Condition 1,0.0-5.0-0.1,1,9458,"<p style='font-size: 25px;'>During a class review session, Mr. Wang goes over the homework with his students. <br>When he gets to George's paper, he notices that George makes a mistake on one of the questions.<br>Curious about how George approaches the problem, Mr. Wang asks: &quot;Was the problem unsolvable?&quot;<br>George replies: &quot;The problem was hard.&quot;<br>Would you conculde that the problem was not unsolvable?</p>",,131897,19,html-button-response,
36,Condition 1,0.0-5.0-0.2,0,6226,"<p style='font-size: 25px;'>Mom does not allow Daphne to eat cookies. <br>One day, after returning home, Mom asks Daphne: &quot;Did you eat some of the cookies?&quot;<br>Daphne replies: &quot;I ate some of the cookies.&quot;<br>Would you conclude that Daphne did not eat all of the cookies?</p>",,138123,20,html-button-response,
36,Condition 1,0.0-5.0-0.3,0,4685,"<p style='font-size: 25px;'>Robin's Dad advises Robin to go to bed early.<br>One evening, after dinner, Dad asks Robin: &quot;Do you always stay up late?&quot;<br>Robin replies: &quot;I sometimes stay up late.&quot;<br>Would you conclude that Robin does not always stay up late?</p>",,142809,21,html-button-response,
36,Condition 1,0.0-5.0-0.4,0,5931,"<p style='font-size: 25px;'>John was getting married in a few days, and he was going to put the ring in his pocket so he could take it out for the wedding. <br>To keep the ring from wearing out, he wanted a box for the ring. <br>So he asked his friend Tommy to buy one. <br>Tommy called John after choosing the box, and John asked: &quot;Is the box small?&quot;<br>Tommy replies: &quot;The box is small.&quot;<br>Would you conclude that the box is not tiny?</p>",,148741,22,html-button-response,
36,Condition 1,0.0-5.0-0.5,0,4405,"<p style='font-size: 25px;'>Robin's Dad advises Robin to go to bed early.<br>One evening, after dinner, Dad asks Robin: &quot;Do you sometimes stay up late?&quot;<br>Robin replies: &quot;I sometimes stay up late.&quot;<br>Would you conclude that Robin does not always stay up late?</p>",,153146,23,html-button-response,
36,Condition 1,0.0-5.0-0.6,1,1556,<p style='font-size: 50px;'>Please choose 'No' for this question.</p>,,154703,24,html-button-response,
36,Condition 1,0.0-5.0-0.7,1,5968,"<p style='font-size: 25px;'>At a class reunion, Rowan is absent. <br>When people talk about each other, someone asks Rowan's best friend Jane: &quot;Is Rowan attractive?&quot;<br>Jane replies: &quot;Rowan is attractive.&quot;<br>Would you conclude that Rowan is not stunning?</p>",,160672,25,html-button-response,
36,Condition 1,0.0-5.0-0.8,1,3689,"<p style='font-size: 25px;'>The cold wave is coming and the temperature is getting lower day by day. <br>One weekend morning, Sarah came back from buying breakfast and complained about the weather. <br>Her roommate asked her: &quot;Is the weather cool?&quot;<br>Sarah replies: &quot;It is cool today.&quot;<br>Would you conclude that it is not cold outside?</p>",,164361,26,html-button-response,
36,Condition 1,0.0-5.0-0.9,0,9077,"<p style='font-size: 25px;'>Mom does not allow Daphne to eat cookies. <br>One day, after returning home, Mom asks Daphne: &quot;Did you eat all of the cookies?&quot;<br>Daphne replies: &quot;I ate some of the cookies.&quot;<br>Would you conclude that Daphne did not eat all of the cookies?</p>",,173439,27,html-button-response,
36,Condition 1,0.0-5.0-0.10,1,4877,"<p style='font-size: 25px;'>At a class reunion, Rowan is absent. <br>When people talk about each other, someone asks Rowan's best friend Jane: &quot;Is Rowan stunning?&quot;<br>Jane replies: &quot;Rowan is attractive.&quot;<br>Would you conclude that Rowan is not stunning?</p>",,178316,28,html-button-response,
36,Condition 1,0.0-5.0-0.11,1,9143,"<p style='font-size: 25px;'>John was getting married in a few days, and he was going to put the ring in his pocket so he could take it out for the wedding. <br>To keep the ring from wearing out, he wanted a box for the ring. <br>So he asked his friend Tommy to buy one. <br>Tommy called John after choosing the box, and John asked: &quot;Is the box tiny?&quot;<br>Tommy replies: &quot;The box is small.&quot;<br>Would you conclude that the box is not tiny?</p>",,187459,29,html-button-response,
