workerid,internal_node_id,response,rt,stimulus,time_elapsed,trial_index,scales,within_group,exp_group
6,0.0-4.0-0.3,0,9077,<p style='font-size: 25px;'>Robin sometimes stays up late. <br>Would you conclude that Robin doesn't always stay up late?</p>,54900,7,always,1,1
6,0.0-4.0-0.11,0,8051,<p style='font-size: 25px;'>Robin sometimes stays up late. <br>Would you conclude that Robin doesn't always stay up late?</p>,112100,15,always,1,1
7,0.0-4.0-0.4,0,2095,<p style='font-size: 25px;'>Robin sometimes stays up late. <br>Would you conclude that Robin doesn't always stay up late?</p>,29695,8,always,1,1
7,0.0-4.0-0.10,0,2821,<p style='font-size: 25px;'>Robin sometimes stays up late. <br>Would you conclude that Robin doesn't always stay up late?</p>,44681,14,always,1,1
8,0.0-4.0-0.3,0,7922,<p style='font-size: 25px;'>Robin sometimes stays up late. <br>Would you conclude that Robin doesn't always stay up late?</p>,65602,7,always,1,1
8,0.0-4.0-0.9,0,7478,<p style='font-size: 25px;'>Robin sometimes stays up late. <br>Would you conclude that Robin doesn't always stay up late?</p>,129372,13,always,1,1
11,0.0-4.0-0.4,0,8338,<p style='font-size: 25px;'>Robin sometimes stays up late. <br>Would you conclude that Robin doesn't always stay up late?</p>,110372,8,always,1,1
11,0.0-4.0-0.8,0,6684,<p style='font-size: 25px;'>Robin sometimes stays up late. <br>Would you conclude that Robin doesn't always stay up late?</p>,147580,12,always,1,1
12,0.0-4.0-0.2,0,6298,<p style='font-size: 25px;'>Robin sometimes stays up late. <br>Would you conclude that Robin doesn't always stay up late?</p>,61773,6,always,1,1
12,0.0-4.0-0.11,0,5065,<p style='font-size: 25px;'>Robin sometimes stays up late. <br>Would you conclude that Robin doesn't always stay up late?</p>,117847,15,always,1,1
13,0.0-4.0-0.5,0,7117,<p style='font-size: 25px;'>Robin sometimes stays up late. <br>Would you conclude that Robin doesn't always stay up late?</p>,128744,9,always,1,1
13,0.0-4.0-0.8,0,8285,<p style='font-size: 25px;'>Robin sometimes stays up late. <br>Would you conclude that Robin doesn't always stay up late?</p>,147025,12,always,1,1
14,0.0-4.0-0.4,0,8085,<p style='font-size: 25px;'>Robin sometimes stays up late. <br>Would you conclude that Robin doesn't always stay up late?</p>,82662,8,always,1,1
14,0.0-4.0-0.11,0,5183,<p style='font-size: 25px;'>Robin sometimes stays up late. <br>Would you conclude that Robin doesn't always stay up late?</p>,144418,15,always,1,1
15,0.0-4.0-0.0,1,6234,<p style='font-size: 25px;'>Robin sometimes stays up late. <br>Would you conclude that Robin doesn't always stay up late?</p>,24949,4,always,1,1
15,0.0-4.0-0.7,0,9706,<p style='font-size: 25px;'>Robin sometimes stays up late. <br>Would you conclude that Robin doesn't always stay up late?</p>,57569,11,always,1,1
16,0.0-4.0-0.6,0,3208,<p style='font-size: 25px;'>Robin sometimes stays up late. <br>Would you conclude that Robin doesn't always stay up late?</p>,70211,10,always,1,1
16,0.0-4.0-0.13,0,5031,<p style='font-size: 25px;'>Robin sometimes stays up late. <br>Would you conclude that Robin doesn't always stay up late?</p>,95067,17,always,1,1
17,0.0-4.0-0.4,0,4181,<p style='font-size: 25px;'>Robin sometimes stays up late. <br>Would you conclude that Robin doesn't always stay up late?</p>,82576,8,always,1,1
17,0.0-4.0-0.7,0,2936,<p style='font-size: 25px;'>Robin sometimes stays up late. <br>Would you conclude that Robin doesn't always stay up late?</p>,97439,11,always,1,1
18,0.0-4.0-0.5,0,7694,<p style='font-size: 25px;'>Robin sometimes stays up late. <br>Would you conclude that Robin doesn't always stay up late?</p>,82357,9,always,1,1
18,0.0-4.0-0.11,0,11267,<p style='font-size: 25px;'>Robin sometimes stays up late. <br>Would you conclude that Robin doesn't always stay up late?</p>,123535,15,always,1,1
20,0.0-4.0-0.3,0,2894,<p style='font-size: 25px;'>Robin sometimes stays up late. <br>Would you conclude that Robin doesn't always stay up late?</p>,28096,7,always,1,1
20,0.0-4.0-0.10,0,2062,<p style='font-size: 25px;'>Robin sometimes stays up late. <br>Would you conclude that Robin doesn't always stay up late?</p>,47840,14,always,1,1
21,0.0-4.0-0.2,0,5443,<p style='font-size: 25px;'>Robin sometimes stays up late. <br>Would you conclude that Robin doesn't always stay up late?</p>,39520,6,always,1,1
21,0.0-4.0-0.11,0,2991,<p style='font-size: 25px;'>Robin sometimes stays up late. <br>Would you conclude that Robin doesn't always stay up late?</p>,66444,15,always,1,1
22,0.0-4.0-0.2,1,2923,<p style='font-size: 25px;'>Robin sometimes stays up late. <br>Would you conclude that Robin doesn't always stay up late?</p>,33256,6,always,1,1
22,0.0-4.0-0.12,0,5510,<p style='font-size: 25px;'>Robin sometimes stays up late. <br>Would you conclude that Robin doesn't always stay up late?</p>,90320,16,always,1,1
23,0.0-4.0-0.0,0,13184,<p style='font-size: 25px;'>Robin sometimes stays up late. <br>Would you conclude that Robin doesn't always stay up late?</p>,63024,4,always,1,1
23,0.0-4.0-0.8,0,4536,<p style='font-size: 25px;'>Robin sometimes stays up late. <br>Would you conclude that Robin doesn't always stay up late?</p>,158618,12,always,1,1
24,0.0-4.0-0.5,0,12503,<p style='font-size: 25px;'>Robin sometimes stays up late. <br>Would you conclude that Robin doesn't always stay up late?</p>,98042,9,always,1,1
24,0.0-4.0-0.8,0,7464,<p style='font-size: 25px;'>Robin sometimes stays up late. <br>Would you conclude that Robin doesn't always stay up late?</p>,124707,12,always,1,1
25,0.0-4.0-0.1,0,6207,<p style='font-size: 25px;'>Robin sometimes stays up late. <br>Would you conclude that Robin doesn't always stay up late?</p>,39869,5,always,1,1
25,0.0-4.0-0.9,0,5222,<p style='font-size: 25px;'>Robin sometimes stays up late. <br>Would you conclude that Robin doesn't always stay up late?</p>,87486,13,always,1,1
26,0.0-4.0-0.1,0,8788,<p style='font-size: 25px;'>Robin sometimes stays up late. <br>Would you conclude that Robin doesn't always stay up late?</p>,55905,5,always,1,1
26,0.0-4.0-0.9,0,4542,<p style='font-size: 25px;'>Robin sometimes stays up late. <br>Would you conclude that Robin doesn't always stay up late?</p>,103685,13,always,1,1
27,0.0-4.0-0.2,0,9066,<p style='font-size: 25px;'>Robin sometimes stays up late. <br>Would you conclude that Robin doesn't always stay up late?</p>,124965,6,always,1,1
27,0.0-4.0-0.8,0,5231,<p style='font-size: 25px;'>Robin sometimes stays up late. <br>Would you conclude that Robin doesn't always stay up late?</p>,153115,12,always,1,1
28,0.0-4.0-0.0,0,26128,<p style='font-size: 25px;'>Robin sometimes stays up late. <br>Would you conclude that Robin doesn't always stay up late?</p>,202380,4,always,1,1
28,0.0-4.0-0.11,0,9563,<p style='font-size: 25px;'>Robin sometimes stays up late. <br>Would you conclude that Robin doesn't always stay up late?</p>,313253,15,always,1,1
29,0.0-4.0-0.0,0,18448,<p style='font-size: 25px;'>Robin sometimes stays up late. <br>Would you conclude that Robin doesn't always stay up late?</p>,95304,4,always,1,1
29,0.0-4.0-0.12,1,7158,<p style='font-size: 25px;'>Robin sometimes stays up late. <br>Would you conclude that Robin doesn't always stay up late?</p>,252575,16,always,1,1
30,0.0-4.0-0.4,0,5663,<p style='font-size: 25px;'>Robin sometimes stays up late. <br>Would you conclude that Robin doesn't always stay up late?</p>,42046,8,always,1,1
30,0.0-4.0-0.12,0,2046,<p style='font-size: 25px;'>Robin sometimes stays up late. <br>Would you conclude that Robin doesn't always stay up late?</p>,62571,16,always,1,1
32,0.0-4.0-0.6,0,20868,<p style='font-size: 25px;'>Robin sometimes stays up late. <br>Would you conclude that Robin doesn't always stay up late?</p>,158055,10,always,1,1
32,0.0-4.0-0.12,0,111263,<p style='font-size: 25px;'>Robin sometimes stays up late. <br>Would you conclude that Robin doesn't always stay up late?</p>,360807,16,always,1,1
33,0.0-4.0-0.6,0,6025,<p style='font-size: 25px;'>Robin sometimes stays up late. <br>Would you conclude that Robin doesn't always stay up late?</p>,94606,10,always,1,1
33,0.0-4.0-0.11,0,4621,<p style='font-size: 25px;'>Robin sometimes stays up late. <br>Would you conclude that Robin doesn't always stay up late?</p>,121594,15,always,1,1
6,0.0-5.0-0.11,0,8686,<p style='font-size: 25px;'>A: Does Robin always stay up late? <br>B: Robin sometimes stays up late. <br>Would you conclude that Robin doesn't always stay up late?</p>,220209,29,always,2,3
6,0.0-5.0-0.18,0,5383,<p style='font-size: 25px;'>A: Does Robin always stay up late? <br>B: Robin sometimes stays up late. <br>Would you conclude that Robin doesn't always stay up late?</p>,260137,36,always,2,3
7,0.0-5.0-0.10,0,1221,<p style='font-size: 25px;'>A: Does Robin always stay up late? <br>B: Robin sometimes stays up late. <br>Would you conclude that Robin doesn't always stay up late?</p>,81802,28,always,2,3
7,0.0-5.0-0.22,0,942,<p style='font-size: 25px;'>A: Does Robin always stay up late? <br>B: Robin sometimes stays up late. <br>Would you conclude that Robin doesn't always stay up late?</p>,103325,40,always,2,3
8,0.0-5.0-0.6,0,3556,<p style='font-size: 25px;'>A: Does Robin always stay up late? <br>B: Robin sometimes stays up late. <br>Would you conclude that Robin doesn't always stay up late?</p>,193486,24,always,2,3
8,0.0-5.0-0.16,0,3540,<p style='font-size: 25px;'>A: Does Robin always stay up late? <br>B: Robin sometimes stays up late. <br>Would you conclude that Robin doesn't always stay up late?</p>,239029,34,always,2,3
11,0.0-5.0-0.6,0,3911,<p style='font-size: 25px;'>A: Does Robin always stay up late? <br>B: Robin sometimes stays up late. <br>Would you conclude that Robin doesn't always stay up late?</p>,202932,24,always,2,3
11,0.0-5.0-0.15,0,2976,<p style='font-size: 25px;'>A: Does Robin always stay up late? <br>B: Robin sometimes stays up late. <br>Would you conclude that Robin doesn't always stay up late?</p>,242217,33,always,2,3
12,0.0-5.0-0.11,0,5332,<p style='font-size: 25px;'>A: Does Robin always stay up late? <br>B: Robin sometimes stays up late. <br>Would you conclude that Robin doesn't always stay up late?</p>,207851,29,always,2,3
12,0.0-5.0-0.19,0,4915,<p style='font-size: 25px;'>A: Does Robin always stay up late? <br>B: Robin sometimes stays up late. <br>Would you conclude that Robin doesn't always stay up late?</p>,265767,37,always,2,3
13,0.0-5.0-0.2,0,6788,<p style='font-size: 25px;'>A: Does Robin always stay up late? <br>B: Robin sometimes stays up late. <br>Would you conclude that Robin doesn't always stay up late?</p>,199374,20,always,2,3
13,0.0-5.0-0.13,0,6856,<p style='font-size: 25px;'>A: Does Robin always stay up late? <br>B: Robin sometimes stays up late. <br>Would you conclude that Robin doesn't always stay up late?</p>,268670,31,always,2,3
14,0.0-5.0-0.4,0,12463,<p style='font-size: 25px;'>A: Does Robin always stay up late? <br>B: Robin sometimes stays up late. <br>Would you conclude that Robin doesn't always stay up late?</p>,211821,22,always,2,3
14,0.0-5.0-0.19,0,9007,<p style='font-size: 25px;'>A: Does Robin always stay up late? <br>B: Robin sometimes stays up late. <br>Would you conclude that Robin doesn't always stay up late?</p>,332175,37,always,2,3
15,0.0-5.0-0.5,0,4218,<p style='font-size: 25px;'>A: Does Robin always stay up late? <br>B: Robin sometimes stays up late. <br>Would you conclude that Robin doesn't always stay up late?</p>,101430,23,always,2,3
15,0.0-5.0-0.25,0,3525,<p style='font-size: 25px;'>A: Does Robin always stay up late? <br>B: Robin sometimes stays up late. <br>Would you conclude that Robin doesn't always stay up late?</p>,165982,43,always,2,3
16,0.0-5.0-0.10,0,2783,<p style='font-size: 25px;'>A: Does Robin always stay up late? <br>B: Robin sometimes stays up late. <br>Would you conclude that Robin doesn't always stay up late?</p>,144763,28,always,2,3
16,0.0-5.0-0.13,0,3032,<p style='font-size: 25px;'>A: Does Robin always stay up late? <br>B: Robin sometimes stays up late. <br>Would you conclude that Robin doesn't always stay up late?</p>,154091,31,always,2,3
17,0.0-5.0-0.9,0,3625,<p style='font-size: 25px;'>A: Does Robin always stay up late? <br>B: Robin sometimes stays up late. <br>Would you conclude that Robin doesn't always stay up late?</p>,175546,27,always,2,3
17,0.0-5.0-0.18,0,3270,<p style='font-size: 25px;'>A: Does Robin always stay up late? <br>B: Robin sometimes stays up late. <br>Would you conclude that Robin doesn't always stay up late?</p>,213540,36,always,2,3
18,0.0-5.0-0.8,0,11210,<p style='font-size: 25px;'>A: Does Robin always stay up late? <br>B: Robin sometimes stays up late. <br>Would you conclude that Robin doesn't always stay up late?</p>,207109,26,always,2,3
18,0.0-5.0-0.23,0,3834,<p style='font-size: 25px;'>A: Does Robin always stay up late? <br>B: Robin sometimes stays up late. <br>Would you conclude that Robin doesn't always stay up late?</p>,274359,41,always,2,3
20,0.0-5.0-0.5,0,1374,<p style='font-size: 25px;'>A: Does Robin always stay up late? <br>B: Robin sometimes stays up late. <br>Would you conclude that Robin doesn't always stay up late?</p>,79072,23,always,2,3
20,0.0-5.0-0.14,0,3622,<p style='font-size: 25px;'>A: Does Robin always stay up late? <br>B: Robin sometimes stays up late. <br>Would you conclude that Robin doesn't always stay up late?</p>,104168,32,always,2,3
21,0.0-5.0-0.10,0,4236,<p style='font-size: 25px;'>A: Does Robin always stay up late? <br>B: Robin sometimes stays up late. <br>Would you conclude that Robin doesn't always stay up late?</p>,128088,28,always,2,3
21,0.0-5.0-0.19,0,4704,<p style='font-size: 25px;'>A: Does Robin always stay up late? <br>B: Robin sometimes stays up late. <br>Would you conclude that Robin doesn't always stay up late?</p>,158716,37,always,2,3
22,0.0-5.0-0.8,0,3725,<p style='font-size: 25px;'>A: Does Robin always stay up late? <br>B: Robin sometimes stays up late. <br>Would you conclude that Robin doesn't always stay up late?</p>,184016,26,always,2,3
22,0.0-5.0-0.23,0,2740,<p style='font-size: 25px;'>A: Does Robin always stay up late? <br>B: Robin sometimes stays up late. <br>Would you conclude that Robin doesn't always stay up late?</p>,267601,41,always,2,3
23,0.0-5.0-0.6,0,6222,<p style='font-size: 25px;'>A: Does Robin always stay up late? <br>B: Robin sometimes stays up late. <br>Would you conclude that Robin doesn't always stay up late?</p>,220352,24,always,2,3
23,0.0-5.0-0.17,0,1595,<p style='font-size: 25px;'>A: Does Robin always stay up late? <br>B: Robin sometimes stays up late. <br>Would you conclude that Robin doesn't always stay up late?</p>,244950,35,always,2,3
24,0.0-5.0-0.12,0,6064,<p style='font-size: 25px;'>A: Does Robin always stay up late? <br>B: Robin sometimes stays up late. <br>Would you conclude that Robin doesn't always stay up late?</p>,250194,30,always,2,3
24,0.0-5.0-0.20,0,12287,<p style='font-size: 25px;'>A: Does Robin always stay up late? <br>B: Robin sometimes stays up late. <br>Would you conclude that Robin doesn't always stay up late?</p>,302178,38,always,2,3
25,0.0-5.0-0.7,0,12330,<p style='font-size: 25px;'>A: Does Robin always stay up late? <br>B: Robin sometimes stays up late. <br>Would you conclude that Robin doesn't always stay up late?</p>,164447,25,always,2,3
25,0.0-5.0-0.17,0,13673,<p style='font-size: 25px;'>A: Does Robin always stay up late? <br>B: Robin sometimes stays up late. <br>Would you conclude that Robin doesn't always stay up late?</p>,231397,35,always,2,3
26,0.0-5.0-0.0,0,13582,<p style='font-size: 25px;'>A: Does Robin always stay up late? <br>B: Robin sometimes stays up late. <br>Would you conclude that Robin doesn't always stay up late?</p>,137702,18,always,2,3
26,0.0-5.0-0.17,0,4301,<p style='font-size: 25px;'>A: Does Robin always stay up late? <br>B: Robin sometimes stays up late. <br>Would you conclude that Robin doesn't always stay up late?</p>,245863,35,always,2,3
27,0.0-5.0-0.9,0,5242,<p style='font-size: 25px;'>A: Does Robin always stay up late? <br>B: Robin sometimes stays up late. <br>Would you conclude that Robin doesn't always stay up late?</p>,249296,27,always,2,3
27,0.0-5.0-0.25,0,4525,<p style='font-size: 25px;'>A: Does Robin always stay up late? <br>B: Robin sometimes stays up late. <br>Would you conclude that Robin doesn't always stay up late?</p>,340071,43,always,2,3
28,0.0-5.0-0.9,0,11363,<p style='font-size: 25px;'>A: Does Robin always stay up late? <br>B: Robin sometimes stays up late. <br>Would you conclude that Robin doesn't always stay up late?</p>,440725,27,always,2,3
28,0.0-5.0-0.17,1,9748,<p style='font-size: 25px;'>A: Does Robin always stay up late? <br>B: Robin sometimes stays up late. <br>Would you conclude that Robin doesn't always stay up late?</p>,519267,35,always,2,3
29,0.0-5.0-0.7,0,14384,<p style='font-size: 25px;'>A: Does Robin always stay up late? <br>B: Robin sometimes stays up late. <br>Would you conclude that Robin doesn't always stay up late?</p>,337311,25,always,2,3
29,0.0-5.0-0.23,0,8440,<p style='font-size: 25px;'>A: Does Robin always stay up late? <br>B: Robin sometimes stays up late. <br>Would you conclude that Robin doesn't always stay up late?</p>,478967,41,always,2,3
30,0.0-5.0-0.7,0,2124,<p style='font-size: 25px;'>A: Does Robin always stay up late? <br>B: Robin sometimes stays up late. <br>Would you conclude that Robin doesn't always stay up late?</p>,91025,25,always,2,3
30,0.0-5.0-0.22,1,1819,<p style='font-size: 25px;'>A: Does Robin always stay up late? <br>B: Robin sometimes stays up late. <br>Would you conclude that Robin doesn't always stay up late?</p>,120081,40,always,2,3
32,0.0-5.0-0.8,0,2010,<p style='font-size: 25px;'>A: Does Robin always stay up late? <br>B: Robin sometimes stays up late. <br>Would you conclude that Robin doesn't always stay up late?</p>,473413,26,always,2,3
32,0.0-5.0-0.18,1,6842,<p style='font-size: 25px;'>A: Does Robin always stay up late? <br>B: Robin sometimes stays up late. <br>Would you conclude that Robin doesn't always stay up late?</p>,584570,36,always,2,3
33,0.0-5.0-0.10,0,9444,<p style='font-size: 25px;'>A: Does Robin always stay up late? <br>B: Robin sometimes stays up late. <br>Would you conclude that Robin doesn't always stay up late?</p>,214037,28,always,2,3
33,0.0-5.0-0.20,0,4429,<p style='font-size: 25px;'>A: Does Robin always stay up late? <br>B: Robin sometimes stays up late. <br>Would you conclude that Robin doesn't always stay up late?</p>,282134,38,always,2,3
6,0.0-5.0-0.10,1,2538,<p style='font-size: 25px;'>A: Does Robin sometimes stay up late? <br>B: Robin sometimes stays up late. <br>Would you conclude that Robin doesn't always stay up late?</p>,211521,28,always,2,2
6,0.0-5.0-0.14,0,15643,<p style='font-size: 25px;'>A: Does Robin sometimes stay up late? <br>B: Robin sometimes stays up late. <br>Would you conclude that Robin doesn't always stay up late?</p>,244404,32,always,2,2
7,0.0-5.0-0.1,0,3346,<p style='font-size: 25px;'>A: Does Robin sometimes stay up late? <br>B: Robin sometimes stays up late. <br>Would you conclude that Robin doesn't always stay up late?</p>,57498,19,always,2,2
7,0.0-5.0-0.17,0,972,<p style='font-size: 25px;'>A: Does Robin sometimes stay up late? <br>B: Robin sometimes stays up late. <br>Would you conclude that Robin doesn't always stay up late?</p>,93159,35,always,2,2
8,0.0-5.0-0.1,0,4227,<p style='font-size: 25px;'>A: Does Robin sometimes stay up late? <br>B: Robin sometimes stays up late. <br>Would you conclude that Robin doesn't always stay up late?</p>,171810,19,always,2,2
8,0.0-5.0-0.19,0,3809,<p style='font-size: 25px;'>A: Does Robin sometimes stay up late? <br>B: Robin sometimes stays up late. <br>Would you conclude that Robin doesn't always stay up late?</p>,247802,37,always,2,2
11,0.0-5.0-0.11,0,9217,<p style='font-size: 25px;'>A: Does Robin sometimes stay up late? <br>B: Robin sometimes stays up late. <br>Would you conclude that Robin doesn't always stay up late?</p>,226883,29,always,2,2
11,0.0-5.0-0.20,0,4692,<p style='font-size: 25px;'>A: Does Robin sometimes stay up late? <br>B: Robin sometimes stays up late. <br>Would you conclude that Robin doesn't always stay up late?</p>,263360,38,always,2,2
12,0.0-5.0-0.8,0,7836,<p style='font-size: 25px;'>A: Does Robin sometimes stay up late? <br>B: Robin sometimes stays up late. <br>Would you conclude that Robin doesn't always stay up late?</p>,192016,26,always,2,2
12,0.0-5.0-0.15,0,5929,<p style='font-size: 25px;'>A: Does Robin sometimes stay up late? <br>B: Robin sometimes stays up late. <br>Would you conclude that Robin doesn't always stay up late?</p>,233613,33,always,2,2
13,0.0-5.0-0.11,0,13005,<p style='font-size: 25px;'>A: Does Robin sometimes stay up late? <br>B: Robin sometimes stays up late. <br>Would you conclude that Robin doesn't always stay up late?</p>,255367,29,always,2,2
13,0.0-5.0-0.18,0,5729,<p style='font-size: 25px;'>A: Does Robin sometimes stay up late? <br>B: Robin sometimes stays up late. <br>Would you conclude that Robin doesn't always stay up late?</p>,293747,36,always,2,2
14,0.0-5.0-0.10,0,11085,<p style='font-size: 25px;'>A: Does Robin sometimes stay up late? <br>B: Robin sometimes stays up late. <br>Would you conclude that Robin doesn't always stay up late?</p>,262381,28,always,2,2
14,0.0-5.0-0.21,0,11913,<p style='font-size: 25px;'>A: Does Robin sometimes stay up late? <br>B: Robin sometimes stays up late. <br>Would you conclude that Robin doesn't always stay up late?</p>,359567,39,always,2,2
15,0.0-5.0-0.2,0,4058,<p style='font-size: 25px;'>A: Does Robin sometimes stay up late? <br>B: Robin sometimes stays up late. <br>Would you conclude that Robin doesn't always stay up late?</p>,88618,20,always,2,2
15,0.0-5.0-0.15,0,3089,<p style='font-size: 25px;'>A: Does Robin sometimes stay up late? <br>B: Robin sometimes stays up late. <br>Would you conclude that Robin doesn't always stay up late?</p>,136506,33,always,2,2
16,0.0-5.0-0.7,0,3600,<p style='font-size: 25px;'>A: Does Robin sometimes stay up late? <br>B: Robin sometimes stays up late. <br>Would you conclude that Robin doesn't always stay up late?</p>,135203,25,always,2,2
16,0.0-5.0-0.18,0,3727,<p style='font-size: 25px;'>A: Does Robin sometimes stay up late? <br>B: Robin sometimes stays up late. <br>Would you conclude that Robin doesn't always stay up late?</p>,169611,36,always,2,2
17,0.0-5.0-0.8,0,3860,<p style='font-size: 25px;'>A: Does Robin sometimes stay up late? <br>B: Robin sometimes stays up late. <br>Would you conclude that Robin doesn't always stay up late?</p>,171921,26,always,2,2
17,0.0-5.0-0.25,0,3242,<p style='font-size: 25px;'>A: Does Robin sometimes stay up late? <br>B: Robin sometimes stays up late. <br>Would you conclude that Robin doesn't always stay up late?</p>,241649,43,always,2,2
18,0.0-5.0-0.11,0,4597,<p style='font-size: 25px;'>A: Does Robin sometimes stay up late? <br>B: Robin sometimes stays up late. <br>Would you conclude that Robin doesn't always stay up late?</p>,220425,29,always,2,2
18,0.0-5.0-0.14,0,3288,<p style='font-size: 25px;'>A: Does Robin sometimes stay up late? <br>B: Robin sometimes stays up late. <br>Would you conclude that Robin doesn't always stay up late?</p>,246573,32,always,2,2
20,0.0-5.0-0.4,0,3582,<p style='font-size: 25px;'>A: Does Robin sometimes stay up late? <br>B: Robin sometimes stays up late. <br>Would you conclude that Robin doesn't always stay up late?</p>,77696,22,always,2,2
20,0.0-5.0-0.23,0,3327,<p style='font-size: 25px;'>A: Does Robin sometimes stay up late? <br>B: Robin sometimes stays up late. <br>Would you conclude that Robin doesn't always stay up late?</p>,130208,41,always,2,2
21,0.0-5.0-0.9,0,4067,<p style='font-size: 25px;'>A: Does Robin sometimes stay up late? <br>B: Robin sometimes stays up late. <br>Would you conclude that Robin doesn't always stay up late?</p>,123852,27,always,2,2
21,0.0-5.0-0.14,0,5160,<p style='font-size: 25px;'>A: Does Robin sometimes stay up late? <br>B: Robin sometimes stays up late. <br>Would you conclude that Robin doesn't always stay up late?</p>,143865,32,always,2,2
22,0.0-5.0-0.4,0,6279,<p style='font-size: 25px;'>A: Does Robin sometimes stay up late? <br>B: Robin sometimes stays up late. <br>Would you conclude that Robin doesn't always stay up late?</p>,161531,22,always,2,2
22,0.0-5.0-0.14,0,8837,<p style='font-size: 25px;'>A: Does Robin sometimes stay up late? <br>B: Robin sometimes stays up late. <br>Would you conclude that Robin doesn't always stay up late?</p>,212592,32,always,2,2
23,0.0-5.0-0.12,0,2597,<p style='font-size: 25px;'>A: Does Robin sometimes stay up late? <br>B: Robin sometimes stays up late. <br>Would you conclude that Robin doesn't always stay up late?</p>,233965,30,always,2,2
23,0.0-5.0-0.15,0,2444,<p style='font-size: 25px;'>A: Does Robin sometimes stay up late? <br>B: Robin sometimes stays up late. <br>Would you conclude that Robin doesn't always stay up late?</p>,241477,33,always,2,2
24,0.0-5.0-0.8,0,12192,<p style='font-size: 25px;'>A: Does Robin sometimes stay up late? <br>B: Robin sometimes stays up late. <br>Would you conclude that Robin doesn't always stay up late?</p>,235641,26,always,2,2
24,0.0-5.0-0.15,0,2783,<p style='font-size: 25px;'>A: Does Robin sometimes stay up late? <br>B: Robin sometimes stays up late. <br>Would you conclude that Robin doesn't always stay up late?</p>,267698,33,always,2,2
25,0.0-5.0-0.10,0,9073,<p style='font-size: 25px;'>A: Does Robin sometimes stay up late? <br>B: Robin sometimes stays up late. <br>Would you conclude that Robin doesn't always stay up late?</p>,181653,28,always,2,2
25,0.0-5.0-0.25,0,6933,<p style='font-size: 25px;'>A: Does Robin sometimes stay up late? <br>B: Robin sometimes stays up late. <br>Would you conclude that Robin doesn't always stay up late?</p>,278380,43,always,2,2
26,0.0-5.0-0.2,0,5228,<p style='font-size: 25px;'>A: Does Robin sometimes stay up late? <br>B: Robin sometimes stays up late. <br>Would you conclude that Robin doesn't always stay up late?</p>,150417,20,always,2,2
26,0.0-5.0-0.15,0,1989,<p style='font-size: 25px;'>A: Does Robin sometimes stay up late? <br>B: Robin sometimes stays up late. <br>Would you conclude that Robin doesn't always stay up late?</p>,236611,33,always,2,2
27,0.0-5.0-0.1,0,6589,<p style='font-size: 25px;'>A: Does Robin sometimes stay up late? <br>B: Robin sometimes stays up late. <br>Would you conclude that Robin doesn't always stay up late?</p>,199203,19,always,2,2
27,0.0-5.0-0.22,0,4302,<p style='font-size: 25px;'>A: Does Robin sometimes stay up late? <br>B: Robin sometimes stays up late. <br>Would you conclude that Robin doesn't always stay up late?</p>,322140,40,always,2,2
28,0.0-5.0-0.0,0,11166,<p style='font-size: 25px;'>A: Does Robin sometimes stay up late? <br>B: Robin sometimes stays up late. <br>Would you conclude that Robin doesn't always stay up late?</p>,344468,18,always,2,2
28,0.0-5.0-0.16,1,10730,<p style='font-size: 25px;'>A: Does Robin sometimes stay up late? <br>B: Robin sometimes stays up late. <br>Would you conclude that Robin doesn't always stay up late?</p>,509518,34,always,2,2
29,0.0-5.0-0.11,0,23847,<p style='font-size: 25px;'>A: Does Robin sometimes stay up late? <br>B: Robin sometimes stays up late. <br>Would you conclude that Robin doesn't always stay up late?</p>,389727,29,always,2,2
29,0.0-5.0-0.15,0,18424,<p style='font-size: 25px;'>A: Does Robin sometimes stay up late? <br>B: Robin sometimes stays up late. <br>Would you conclude that Robin doesn't always stay up late?</p>,437415,33,always,2,2
30,0.0-5.0-0.12,0,1306,<p style='font-size: 25px;'>A: Does Robin sometimes stay up late? <br>B: Robin sometimes stays up late. <br>Would you conclude that Robin doesn't always stay up late?</p>,101749,30,always,2,2
30,0.0-5.0-0.23,0,1556,<p style='font-size: 25px;'>A: Does Robin sometimes stay up late? <br>B: Robin sometimes stays up late. <br>Would you conclude that Robin doesn't always stay up late?</p>,121638,41,always,2,2
32,0.0-5.0-0.6,0,2612,<p style='font-size: 25px;'>A: Does Robin sometimes stay up late? <br>B: Robin sometimes stays up late. <br>Would you conclude that Robin doesn't always stay up late?</p>,468835,24,always,2,2
32,0.0-5.0-0.17,0,1348,<p style='font-size: 25px;'>A: Does Robin sometimes stay up late? <br>B: Robin sometimes stays up late. <br>Would you conclude that Robin doesn't always stay up late?</p>,577726,35,always,2,2
33,0.0-5.0-0.9,0,6963,<p style='font-size: 25px;'>A: Does Robin sometimes stay up late? <br>B: Robin sometimes stays up late. <br>Would you conclude that Robin doesn't always stay up late?</p>,204593,27,always,2,2
33,0.0-5.0-0.23,0,3431,<p style='font-size: 25px;'>A: Does Robin sometimes stay up late? <br>B: Robin sometimes stays up late. <br>Would you conclude that Robin doesn't always stay up late?</p>,296566,41,always,2,2
6,0.0-4.0-0.5,1,5925,<p style='font-size: 25px;'>Rowan is attractive. <br>Would you conclude that Rowan is not stunning? </p>,70699,9,attractive,1,1
6,0.0-4.0-0.13,1,7376,<p style='font-size: 25px;'>Rowan is attractive. <br>Would you conclude that Rowan is not stunning? </p>,126503,17,attractive,1,1
7,0.0-4.0-0.3,0,4104,<p style='font-size: 25px;'>Rowan is attractive. <br>Would you conclude that Rowan is not stunning? </p>,27599,7,attractive,1,1
7,0.0-4.0-0.11,0,1182,<p style='font-size: 25px;'>Rowan is attractive. <br>Would you conclude that Rowan is not stunning? </p>,45863,15,attractive,1,1
8,0.0-4.0-0.6,1,7744,<p style='font-size: 25px;'>Rowan is attractive. <br>Would you conclude that Rowan is not stunning? </p>,94357,10,attractive,1,1
8,0.0-4.0-0.12,1,11078,<p style='font-size: 25px;'>Rowan is attractive. <br>Would you conclude that Rowan is not stunning? </p>,146491,16,attractive,1,1
11,0.0-4.0-0.6,0,14520,<p style='font-size: 25px;'>Rowan is attractive. <br>Would you conclude that Rowan is not stunning? </p>,135679,10,attractive,1,1
11,0.0-4.0-0.12,0,5213,<p style='font-size: 25px;'>Rowan is attractive. <br>Would you conclude that Rowan is not stunning? </p>,166511,16,attractive,1,1
12,0.0-4.0-0.4,1,10787,<p style='font-size: 25px;'>Rowan is attractive. <br>Would you conclude that Rowan is not stunning? </p>,77730,8,attractive,1,1
12,0.0-4.0-0.7,1,7202,<p style='font-size: 25px;'>Rowan is attractive. <br>Would you conclude that Rowan is not stunning? </p>,95365,11,attractive,1,1
13,0.0-4.0-0.2,0,6440,<p style='font-size: 25px;'>Rowan is attractive. <br>Would you conclude that Rowan is not stunning? </p>,111418,6,attractive,1,1
13,0.0-4.0-0.12,0,3158,<p style='font-size: 25px;'>Rowan is attractive. <br>Would you conclude that Rowan is not stunning? </p>,163143,16,attractive,1,1
14,0.0-4.0-0.5,1,8252,<p style='font-size: 25px;'>Rowan is attractive. <br>Would you conclude that Rowan is not stunning? </p>,90915,9,attractive,1,1
14,0.0-4.0-0.10,1,11977,<p style='font-size: 25px;'>Rowan is attractive. <br>Would you conclude that Rowan is not stunning? </p>,139232,14,attractive,1,1
15,0.0-4.0-0.1,0,3198,<p style='font-size: 25px;'>Rowan is attractive. <br>Would you conclude that Rowan is not stunning? </p>,28149,5,attractive,1,1
15,0.0-4.0-0.10,0,2966,<p style='font-size: 25px;'>Rowan is attractive. <br>Would you conclude that Rowan is not stunning? </p>,66708,14,attractive,1,1
16,0.0-4.0-0.2,0,3999,<p style='font-size: 25px;'>Rowan is attractive. <br>Would you conclude that Rowan is not stunning? </p>,57387,6,attractive,1,1
16,0.0-4.0-0.11,0,2792,<p style='font-size: 25px;'>Rowan is attractive. <br>Would you conclude that Rowan is not stunning? </p>,84715,15,attractive,1,1
17,0.0-4.0-0.0,0,9594,<p style='font-size: 25px;'>Rowan is attractive. <br>Would you conclude that Rowan is not stunning? </p>,62649,4,attractive,1,1
17,0.0-4.0-0.12,1,3029,<p style='font-size: 25px;'>Rowan is attractive. <br>Would you conclude that Rowan is not stunning? </p>,126600,16,attractive,1,1
18,0.0-4.0-0.0,1,5382,<p style='font-size: 25px;'>Rowan is attractive. <br>Would you conclude that Rowan is not stunning? </p>,49675,4,attractive,1,1
18,0.0-4.0-0.7,1,4312,<p style='font-size: 25px;'>Rowan is attractive. <br>Would you conclude that Rowan is not stunning? </p>,92881,11,attractive,1,1
20,0.0-4.0-0.2,0,3446,<p style='font-size: 25px;'>Rowan is attractive. <br>Would you conclude that Rowan is not stunning? </p>,25200,6,attractive,1,1
20,0.0-4.0-0.13,0,1614,<p style='font-size: 25px;'>Rowan is attractive. <br>Would you conclude that Rowan is not stunning? </p>,53064,17,attractive,1,1
21,0.0-4.0-0.6,0,6635,<p style='font-size: 25px;'>Rowan is attractive. <br>Would you conclude that Rowan is not stunning? </p>,53968,10,attractive,1,1
21,0.0-4.0-0.13,0,5847,<p style='font-size: 25px;'>Rowan is attractive. <br>Would you conclude that Rowan is not stunning? </p>,74256,17,attractive,1,1
22,0.0-4.0-0.0,1,4946,<p style='font-size: 25px;'>Rowan is attractive. <br>Would you conclude that Rowan is not stunning? </p>,25559,4,attractive,1,1
22,0.0-4.0-0.9,1,11453,<p style='font-size: 25px;'>Rowan is attractive. <br>Would you conclude that Rowan is not stunning? </p>,77609,13,attractive,1,1
23,0.0-4.0-0.4,1,9001,<p style='font-size: 25px;'>Rowan is attractive. <br>Would you conclude that Rowan is not stunning? </p>,112853,8,attractive,1,1
23,0.0-4.0-0.9,0,9592,<p style='font-size: 25px;'>Rowan is attractive. <br>Would you conclude that Rowan is not stunning? </p>,168210,13,attractive,1,1
24,0.0-4.0-0.4,1,13072,<p style='font-size: 25px;'>Rowan is attractive. <br>Would you conclude that Rowan is not stunning? </p>,85538,8,attractive,1,1
24,0.0-4.0-0.13,0,19319,<p style='font-size: 25px;'>Rowan is attractive. <br>Would you conclude that Rowan is not stunning? </p>,166122,17,attractive,1,1
25,0.0-4.0-0.2,1,6039,<p style='font-size: 25px;'>Rowan is attractive. <br>Would you conclude that Rowan is not stunning? </p>,45909,6,attractive,1,1
25,0.0-4.0-0.11,1,6092,<p style='font-size: 25px;'>Rowan is attractive. <br>Would you conclude that Rowan is not stunning? </p>,99820,15,attractive,1,1
26,0.0-4.0-0.5,1,6517,<p style='font-size: 25px;'>Rowan is attractive. <br>Would you conclude that Rowan is not stunning? </p>,84361,9,attractive,1,1
26,0.0-4.0-0.11,1,4353,<p style='font-size: 25px;'>Rowan is attractive. <br>Would you conclude that Rowan is not stunning? </p>,110912,15,attractive,1,1
27,0.0-4.0-0.5,1,5521,<p style='font-size: 25px;'>Rowan is attractive. <br>Would you conclude that Rowan is not stunning? </p>,138299,9,attractive,1,1
27,0.0-4.0-0.11,1,3487,<p style='font-size: 25px;'>Rowan is attractive. <br>Would you conclude that Rowan is not stunning? </p>,171435,15,attractive,1,1
28,0.0-4.0-0.4,1,11048,<p style='font-size: 25px;'>Rowan is attractive. <br>Would you conclude that Rowan is not stunning? </p>,250858,8,attractive,1,1
28,0.0-4.0-0.10,1,9014,<p style='font-size: 25px;'>Rowan is attractive. <br>Would you conclude that Rowan is not stunning? </p>,303687,14,attractive,1,1
29,0.0-4.0-0.5,1,7151,<p style='font-size: 25px;'>Rowan is attractive. <br>Would you conclude that Rowan is not stunning? </p>,210711,9,attractive,1,1
29,0.0-4.0-0.13,1,7071,<p style='font-size: 25px;'>Rowan is attractive. <br>Would you conclude that Rowan is not stunning? </p>,259646,17,attractive,1,1
30,0.0-4.0-0.5,1,2285,<p style='font-size: 25px;'>Rowan is attractive. <br>Would you conclude that Rowan is not stunning? </p>,44333,9,attractive,1,1
30,0.0-4.0-0.10,1,1485,<p style='font-size: 25px;'>Rowan is attractive. <br>Would you conclude that Rowan is not stunning? </p>,56254,14,attractive,1,1
32,0.0-4.0-0.1,1,4014,<p style='font-size: 25px;'>Rowan is attractive. <br>Would you conclude that Rowan is not stunning? </p>,52858,5,attractive,1,1
32,0.0-4.0-0.10,1,9114,<p style='font-size: 25px;'>Rowan is attractive. <br>Would you conclude that Rowan is not stunning? </p>,178295,14,attractive,1,1
33,0.0-4.0-0.3,1,13938,<p style='font-size: 25px;'>Rowan is attractive. <br>Would you conclude that Rowan is not stunning? </p>,70850,7,attractive,1,1
33,0.0-4.0-0.7,1,4982,<p style='font-size: 25px;'>Rowan is attractive. <br>Would you conclude that Rowan is not stunning? </p>,99589,11,attractive,1,1
6,0.0-5.0-0.12,1,2820,<p style='font-size: 25px;'>A: Is Rowan attractive? <br>B: Rowan is attractive. <br>Would you conclude that Rowan is not stunning?</p>,223031,30,attractive,2,2
6,0.0-5.0-0.24,1,9872,<p style='font-size: 25px;'>A: Is Rowan attractive? <br>B: Rowan is attractive. <br>Would you conclude that Rowan is not stunning?</p>,292418,42,attractive,2,2
7,0.0-5.0-0.8,0,5583,<p style='font-size: 25px;'>A: Is Rowan attractive? <br>B: Rowan is attractive. <br>Would you conclude that Rowan is not stunning?</p>,79098,26,attractive,2,2
7,0.0-5.0-0.19,0,1628,<p style='font-size: 25px;'>A: Is Rowan attractive? <br>B: Rowan is attractive. <br>Would you conclude that Rowan is not stunning?</p>,99569,37,attractive,2,2
8,0.0-5.0-0.9,1,6439,<p style='font-size: 25px;'>A: Is Rowan attractive? <br>B: Rowan is attractive. <br>Would you conclude that Rowan is not stunning?</p>,206782,27,attractive,2,2
8,0.0-5.0-0.23,1,3352,<p style='font-size: 25px;'>A: Is Rowan attractive? <br>B: Rowan is attractive. <br>Would you conclude that Rowan is not stunning?</p>,261889,41,attractive,2,2
11,0.0-5.0-0.2,0,2493,<p style='font-size: 25px;'>A: Is Rowan attractive? <br>B: Rowan is attractive. <br>Would you conclude that Rowan is not stunning?</p>,189644,20,attractive,2,2
11,0.0-5.0-0.14,0,2404,<p style='font-size: 25px;'>A: Is Rowan attractive? <br>B: Rowan is attractive. <br>Would you conclude that Rowan is not stunning?</p>,239238,32,attractive,2,2
12,0.0-5.0-0.12,1,6730,<p style='font-size: 25px;'>A: Is Rowan attractive? <br>B: Rowan is attractive. <br>Would you conclude that Rowan is not stunning?</p>,214581,30,attractive,2,2
12,0.0-5.0-0.20,1,6835,<p style='font-size: 25px;'>A: Is Rowan attractive? <br>B: Rowan is attractive. <br>Would you conclude that Rowan is not stunning?</p>,272602,38,attractive,2,2
13,0.0-5.0-0.8,0,4743,<p style='font-size: 25px;'>A: Is Rowan attractive? <br>B: Rowan is attractive. <br>Would you conclude that Rowan is not stunning?</p>,235790,26,attractive,2,2
13,0.0-5.0-0.25,0,8362,<p style='font-size: 25px;'>A: Is Rowan attractive? <br>B: Rowan is attractive. <br>Would you conclude that Rowan is not stunning?</p>,343450,43,attractive,2,2
14,0.0-5.0-0.2,1,9641,<p style='font-size: 25px;'>A: Is Rowan attractive? <br>B: Rowan is attractive. <br>Would you conclude that Rowan is not stunning?</p>,188833,20,attractive,2,2
14,0.0-5.0-0.14,1,5734,<p style='font-size: 25px;'>A: Is Rowan attractive? <br>B: Rowan is attractive. <br>Would you conclude that Rowan is not stunning?</p>,291346,32,attractive,2,2
15,0.0-5.0-0.11,0,4726,<p style='font-size: 25px;'>A: Is Rowan attractive? <br>B: Rowan is attractive. <br>Would you conclude that Rowan is not stunning?</p>,122129,29,attractive,2,2
15,0.0-5.0-0.18,0,2201,<p style='font-size: 25px;'>A: Is Rowan attractive? <br>B: Rowan is attractive. <br>Would you conclude that Rowan is not stunning?</p>,144179,36,attractive,2,2
16,0.0-5.0-0.12,0,2656,<p style='font-size: 25px;'>A: Is Rowan attractive? <br>B: Rowan is attractive. <br>Would you conclude that Rowan is not stunning?</p>,151059,30,attractive,2,2
16,0.0-5.0-0.22,0,5816,<p style='font-size: 25px;'>A: Is Rowan attractive? <br>B: Rowan is attractive. <br>Would you conclude that Rowan is not stunning?</p>,183075,40,attractive,2,2
17,0.0-5.0-0.12,1,3019,<p style='font-size: 25px;'>A: Is Rowan attractive? <br>B: Rowan is attractive. <br>Would you conclude that Rowan is not stunning?</p>,192693,30,attractive,2,2
17,0.0-5.0-0.20,1,1995,<p style='font-size: 25px;'>A: Is Rowan attractive? <br>B: Rowan is attractive. <br>Would you conclude that Rowan is not stunning?</p>,223122,38,attractive,2,2
18,0.0-5.0-0.1,1,3911,<p style='font-size: 25px;'>A: Is Rowan attractive? <br>B: Rowan is attractive. <br>Would you conclude that Rowan is not stunning?</p>,148731,19,attractive,2,2
18,0.0-5.0-0.20,1,5829,<p style='font-size: 25px;'>A: Is Rowan attractive? <br>B: Rowan is attractive. <br>Would you conclude that Rowan is not stunning?</p>,267285,38,attractive,2,2
20,0.0-5.0-0.12,0,1246,<p style='font-size: 25px;'>A: Is Rowan attractive? <br>B: Rowan is attractive. <br>Would you conclude that Rowan is not stunning?</p>,97399,30,attractive,2,2
20,0.0-5.0-0.15,0,2014,<p style='font-size: 25px;'>A: Is Rowan attractive? <br>B: Rowan is attractive. <br>Would you conclude that Rowan is not stunning?</p>,106184,33,attractive,2,2
21,0.0-5.0-0.0,0,7163,<p style='font-size: 25px;'>A: Is Rowan attractive? <br>B: Rowan is attractive. <br>Would you conclude that Rowan is not stunning?</p>,81420,18,attractive,2,2
21,0.0-5.0-0.22,0,3775,<p style='font-size: 25px;'>A: Is Rowan attractive? <br>B: Rowan is attractive. <br>Would you conclude that Rowan is not stunning?</p>,172104,40,attractive,2,2
22,0.0-5.0-0.6,1,3696,<p style='font-size: 25px;'>A: Is Rowan attractive? <br>B: Rowan is attractive. <br>Would you conclude that Rowan is not stunning?</p>,173537,24,attractive,2,2
22,0.0-5.0-0.17,1,3294,<p style='font-size: 25px;'>A: Is Rowan attractive? <br>B: Rowan is attractive. <br>Would you conclude that Rowan is not stunning?</p>,231113,35,attractive,2,2
23,0.0-5.0-0.10,0,2067,<p style='font-size: 25px;'>A: Is Rowan attractive? <br>B: Rowan is attractive. <br>Would you conclude that Rowan is not stunning?</p>,229843,28,attractive,2,2
23,0.0-5.0-0.16,0,1875,<p style='font-size: 25px;'>A: Is Rowan attractive? <br>B: Rowan is attractive. <br>Would you conclude that Rowan is not stunning?</p>,243353,34,attractive,2,2
24,0.0-5.0-0.9,0,3880,<p style='font-size: 25px;'>A: Is Rowan attractive? <br>B: Rowan is attractive. <br>Would you conclude that Rowan is not stunning?</p>,239522,27,attractive,2,2
24,0.0-5.0-0.19,0,2391,<p style='font-size: 25px;'>A: Is Rowan attractive? <br>B: Rowan is attractive. <br>Would you conclude that Rowan is not stunning?</p>,289890,37,attractive,2,2
25,0.0-5.0-0.6,1,4230,<p style='font-size: 25px;'>A: Is Rowan attractive? <br>B: Rowan is attractive. <br>Would you conclude that Rowan is not stunning?</p>,152115,24,attractive,2,2
25,0.0-5.0-0.13,1,3357,<p style='font-size: 25px;'>A: Is Rowan attractive? <br>B: Rowan is attractive. <br>Would you conclude that Rowan is not stunning?</p>,196665,31,attractive,2,2
26,0.0-5.0-0.9,1,8576,<p style='font-size: 25px;'>A: Is Rowan attractive? <br>B: Rowan is attractive. <br>Would you conclude that Rowan is not stunning?</p>,194255,27,attractive,2,2
26,0.0-5.0-0.16,1,4939,<p style='font-size: 25px;'>A: Is Rowan attractive? <br>B: Rowan is attractive. <br>Would you conclude that Rowan is not stunning?</p>,241559,34,attractive,2,2
27,0.0-5.0-0.11,0,8567,<p style='font-size: 25px;'>A: Is Rowan attractive? <br>B: Rowan is attractive. <br>Would you conclude that Rowan is not stunning?</p>,262048,29,attractive,2,2
27,0.0-5.0-0.16,0,6250,<p style='font-size: 25px;'>A: Is Rowan attractive? <br>B: Rowan is attractive. <br>Would you conclude that Rowan is not stunning?</p>,288122,34,attractive,2,2
28,0.0-5.0-0.11,0,12531,<p style='font-size: 25px;'>A: Is Rowan attractive? <br>B: Rowan is attractive. <br>Would you conclude that Rowan is not stunning?</p>,465640,29,attractive,2,2
28,0.0-5.0-0.24,1,2099,<p style='font-size: 25px;'>A: Is Rowan attractive? <br>B: Rowan is attractive. <br>Would you conclude that Rowan is not stunning?</p>,595988,42,attractive,2,2
29,0.0-5.0-0.10,1,9656,<p style='font-size: 25px;'>A: Is Rowan attractive? <br>B: Rowan is attractive. <br>Would you conclude that Rowan is not stunning?</p>,365879,28,attractive,2,2
29,0.0-5.0-0.21,1,4567,<p style='font-size: 25px;'>A: Is Rowan attractive? <br>B: Rowan is attractive. <br>Would you conclude that Rowan is not stunning?</p>,465815,39,attractive,2,2
30,0.0-5.0-0.5,1,2896,<p style='font-size: 25px;'>A: Is Rowan attractive? <br>B: Rowan is attractive. <br>Would you conclude that Rowan is not stunning?</p>,86923,23,attractive,2,2
30,0.0-5.0-0.15,1,4309,<p style='font-size: 25px;'>A: Is Rowan attractive? <br>B: Rowan is attractive. <br>Would you conclude that Rowan is not stunning?</p>,107820,33,attractive,2,2
32,0.0-5.0-0.1,1,3909,<p style='font-size: 25px;'>A: Is Rowan attractive? <br>B: Rowan is attractive. <br>Would you conclude that Rowan is not stunning?</p>,375599,19,attractive,2,2
32,0.0-5.0-0.15,0,1578,<p style='font-size: 25px;'>A: Is Rowan attractive? <br>B: Rowan is attractive. <br>Would you conclude that Rowan is not stunning?</p>,574862,33,attractive,2,2
33,0.0-5.0-0.7,1,5514,<p style='font-size: 25px;'>A: Is Rowan attractive? <br>B: Rowan is attractive. <br>Would you conclude that Rowan is not stunning?</p>,187466,25,attractive,2,2
33,0.0-5.0-0.18,1,3479,<p style='font-size: 25px;'>A: Is Rowan attractive? <br>B: Rowan is attractive. <br>Would you conclude that Rowan is not stunning?</p>,268240,36,attractive,2,2
6,0.0-5.0-0.9,1,5975,<p style='font-size: 25px;'>A: Is Rowan stunning? <br>B: Rowan is attractive. <br>Would you conclude that Rowan is not stunning?</p>,208981,27,attractive,2,3
6,0.0-5.0-0.23,1,4556,<p style='font-size: 25px;'>A: Is Rowan stunning? <br>B: Rowan is attractive. <br>Would you conclude that Rowan is not stunning?</p>,282544,41,attractive,2,3
7,0.0-5.0-0.6,0,2077,<p style='font-size: 25px;'>A: Is Rowan stunning? <br>B: Rowan is attractive. <br>Would you conclude that Rowan is not stunning?</p>,72025,24,attractive,2,3
7,0.0-5.0-0.14,0,2056,<p style='font-size: 25px;'>A: Is Rowan stunning? <br>B: Rowan is attractive. <br>Would you conclude that Rowan is not stunning?</p>,88201,32,attractive,2,3
8,0.0-5.0-0.7,0,5621,<p style='font-size: 25px;'>A: Is Rowan stunning? <br>B: Rowan is attractive. <br>Would you conclude that Rowan is not stunning?</p>,199108,25,attractive,2,3
8,0.0-5.0-0.20,1,3691,<p style='font-size: 25px;'>A: Is Rowan stunning? <br>B: Rowan is attractive. <br>Would you conclude that Rowan is not stunning?</p>,251495,38,attractive,2,3
11,0.0-5.0-0.7,0,2412,<p style='font-size: 25px;'>A: Is Rowan stunning? <br>B: Rowan is attractive. <br>Would you conclude that Rowan is not stunning?</p>,205347,25,attractive,2,3
11,0.0-5.0-0.17,0,7829,<p style='font-size: 25px;'>A: Is Rowan stunning? <br>B: Rowan is attractive. <br>Would you conclude that Rowan is not stunning?</p>,254425,35,attractive,2,3
12,0.0-5.0-0.6,0,5946,<p style='font-size: 25px;'>A: Is Rowan stunning? <br>B: Rowan is attractive. <br>Would you conclude that Rowan is not stunning?</p>,178714,24,attractive,2,3
12,0.0-5.0-0.18,1,5180,<p style='font-size: 25px;'>A: Is Rowan stunning? <br>B: Rowan is attractive. <br>Would you conclude that Rowan is not stunning?</p>,260850,36,attractive,2,3
13,0.0-5.0-0.9,0,4507,<p style='font-size: 25px;'>A: Is Rowan stunning? <br>B: Rowan is attractive. <br>Would you conclude that Rowan is not stunning?</p>,240298,27,attractive,2,3
13,0.0-5.0-0.19,0,15997,<p style='font-size: 25px;'>A: Is Rowan stunning? <br>B: Rowan is attractive. <br>Would you conclude that Rowan is not stunning?</p>,309745,37,attractive,2,3
14,0.0-5.0-0.0,1,19689,<p style='font-size: 25px;'>A: Is Rowan stunning? <br>B: Rowan is attractive. <br>Would you conclude that Rowan is not stunning?</p>,171372,18,attractive,2,3
14,0.0-5.0-0.23,1,4501,<p style='font-size: 25px;'>A: Is Rowan stunning? <br>B: Rowan is attractive. <br>Would you conclude that Rowan is not stunning?</p>,372065,41,attractive,2,3
15,0.0-5.0-0.9,0,3183,<p style='font-size: 25px;'>A: Is Rowan stunning? <br>B: Rowan is attractive. <br>Would you conclude that Rowan is not stunning?</p>,115020,27,attractive,2,3
15,0.0-5.0-0.19,0,2652,<p style='font-size: 25px;'>A: Is Rowan stunning? <br>B: Rowan is attractive. <br>Would you conclude that Rowan is not stunning?</p>,146832,37,attractive,2,3
16,0.0-5.0-0.8,0,3712,<p style='font-size: 25px;'>A: Is Rowan stunning? <br>B: Rowan is attractive. <br>Would you conclude that Rowan is not stunning?</p>,138915,26,attractive,2,3
16,0.0-5.0-0.20,0,2656,<p style='font-size: 25px;'>A: Is Rowan stunning? <br>B: Rowan is attractive. <br>Would you conclude that Rowan is not stunning?</p>,174812,38,attractive,2,3
17,0.0-5.0-0.3,0,6970,<p style='font-size: 25px;'>A: Is Rowan stunning? <br>B: Rowan is attractive. <br>Would you conclude that Rowan is not stunning?</p>,153285,21,attractive,2,3
17,0.0-5.0-0.19,1,7585,<p style='font-size: 25px;'>A: Is Rowan stunning? <br>B: Rowan is attractive. <br>Would you conclude that Rowan is not stunning?</p>,221127,37,attractive,2,3
18,0.0-5.0-0.4,1,5640,<p style='font-size: 25px;'>A: Is Rowan stunning? <br>B: Rowan is attractive. <br>Would you conclude that Rowan is not stunning?</p>,184353,22,attractive,2,3
18,0.0-5.0-0.18,1,2771,<p style='font-size: 25px;'>A: Is Rowan stunning? <br>B: Rowan is attractive. <br>Would you conclude that Rowan is not stunning?</p>,259845,36,attractive,2,3
20,0.0-5.0-0.11,0,2279,<p style='font-size: 25px;'>A: Is Rowan stunning? <br>B: Rowan is attractive. <br>Would you conclude that Rowan is not stunning?</p>,96152,29,attractive,2,3
20,0.0-5.0-0.25,0,3798,<p style='font-size: 25px;'>A: Is Rowan stunning? <br>B: Rowan is attractive. <br>Would you conclude that Rowan is not stunning?</p>,135536,43,attractive,2,3
21,0.0-5.0-0.7,0,2831,<p style='font-size: 25px;'>A: Is Rowan stunning? <br>B: Rowan is attractive. <br>Would you conclude that Rowan is not stunning?</p>,116420,25,attractive,2,3
21,0.0-5.0-0.18,0,3083,<p style='font-size: 25px;'>A: Is Rowan stunning? <br>B: Rowan is attractive. <br>Would you conclude that Rowan is not stunning?</p>,154012,36,attractive,2,3
22,0.0-5.0-0.7,0,6748,<p style='font-size: 25px;'>A: Is Rowan stunning? <br>B: Rowan is attractive. <br>Would you conclude that Rowan is not stunning?</p>,180288,25,attractive,2,3
22,0.0-5.0-0.15,1,10885,<p style='font-size: 25px;'>A: Is Rowan stunning? <br>B: Rowan is attractive. <br>Would you conclude that Rowan is not stunning?</p>,223481,33,attractive,2,3
23,0.0-5.0-0.1,0,2341,<p style='font-size: 25px;'>A: Is Rowan stunning? <br>B: Rowan is attractive. <br>Would you conclude that Rowan is not stunning?</p>,200731,19,attractive,2,3
23,0.0-5.0-0.13,0,2445,<p style='font-size: 25px;'>A: Is Rowan stunning? <br>B: Rowan is attractive. <br>Would you conclude that Rowan is not stunning?</p>,236410,31,attractive,2,3
24,0.0-5.0-0.2,0,4199,<p style='font-size: 25px;'>A: Is Rowan stunning? <br>B: Rowan is attractive. <br>Would you conclude that Rowan is not stunning?</p>,190705,20,attractive,2,3
24,0.0-5.0-0.21,0,8255,<p style='font-size: 25px;'>A: Is Rowan stunning? <br>B: Rowan is attractive. <br>Would you conclude that Rowan is not stunning?</p>,310434,39,attractive,2,3
25,0.0-5.0-0.4,1,4740,<p style='font-size: 25px;'>A: Is Rowan stunning? <br>B: Rowan is attractive. <br>Would you conclude that Rowan is not stunning?</p>,139060,22,attractive,2,3
25,0.0-5.0-0.24,1,6858,<p style='font-size: 25px;'>A: Is Rowan stunning? <br>B: Rowan is attractive. <br>Would you conclude that Rowan is not stunning?</p>,271445,42,attractive,2,3
26,0.0-5.0-0.4,1,8209,<p style='font-size: 25px;'>A: Is Rowan stunning? <br>B: Rowan is attractive. <br>Would you conclude that Rowan is not stunning?</p>,162900,22,attractive,2,3
26,0.0-5.0-0.25,1,11095,<p style='font-size: 25px;'>A: Is Rowan stunning? <br>B: Rowan is attractive. <br>Would you conclude that Rowan is not stunning?</p>,290260,43,attractive,2,3
27,0.0-5.0-0.3,1,11386,<p style='font-size: 25px;'>A: Is Rowan stunning? <br>B: Rowan is attractive. <br>Would you conclude that Rowan is not stunning?</p>,217522,21,attractive,2,3
27,0.0-5.0-0.23,0,5005,<p style='font-size: 25px;'>A: Is Rowan stunning? <br>B: Rowan is attractive. <br>Would you conclude that Rowan is not stunning?</p>,327148,41,attractive,2,3
28,0.0-5.0-0.10,0,12380,<p style='font-size: 25px;'>A: Is Rowan stunning? <br>B: Rowan is attractive. <br>Would you conclude that Rowan is not stunning?</p>,453107,28,attractive,2,3
28,0.0-5.0-0.15,1,10164,<p style='font-size: 25px;'>A: Is Rowan stunning? <br>B: Rowan is attractive. <br>Would you conclude that Rowan is not stunning?</p>,498786,33,attractive,2,3
29,0.0-5.0-0.3,1,8216,<p style='font-size: 25px;'>A: Is Rowan stunning? <br>B: Rowan is attractive. <br>Would you conclude that Rowan is not stunning?</p>,290175,21,attractive,2,3
29,0.0-5.0-0.19,1,8103,<p style='font-size: 25px;'>A: Is Rowan stunning? <br>B: Rowan is attractive. <br>Would you conclude that Rowan is not stunning?</p>,458294,37,attractive,2,3
30,0.0-5.0-0.1,0,1513,<p style='font-size: 25px;'>A: Is Rowan stunning? <br>B: Rowan is attractive. <br>Would you conclude that Rowan is not stunning?</p>,74511,19,attractive,2,3
30,0.0-5.0-0.19,1,2004,<p style='font-size: 25px;'>A: Is Rowan stunning? <br>B: Rowan is attractive. <br>Would you conclude that Rowan is not stunning?</p>,114704,37,attractive,2,3
32,0.0-5.0-0.11,1,2549,<p style='font-size: 25px;'>A: Is Rowan stunning? <br>B: Rowan is attractive. <br>Would you conclude that Rowan is not stunning?</p>,478762,29,attractive,2,3
32,0.0-5.0-0.21,1,1946,<p style='font-size: 25px;'>A: Is Rowan stunning? <br>B: Rowan is attractive. <br>Would you conclude that Rowan is not stunning?</p>,590554,39,attractive,2,3
33,0.0-5.0-0.3,0,8548,<p style='font-size: 25px;'>A: Is Rowan stunning? <br>B: Rowan is attractive. <br>Would you conclude that Rowan is not stunning?</p>,156700,21,attractive,2,3
33,0.0-5.0-0.21,0,5167,<p style='font-size: 25px;'>A: Is Rowan stunning? <br>B: Rowan is attractive. <br>Would you conclude that Rowan is not stunning?</p>,287302,39,attractive,2,3
6,0.0-4.0-0.4,1,9869,<p style='font-size: 25px;'>The weather is cool. <br>Would you conclude that the weather is not cold? </p>,64771,8,cold,1,1
6,0.0-4.0-0.7,1,6591,<p style='font-size: 25px;'>The weather is cool. <br>Would you conclude that the weather is not cold? </p>,86953,11,cold,1,1
7,0.0-4.0-0.5,0,2921,<p style='font-size: 25px;'>The weather is cool. <br>Would you conclude that the weather is not cold? </p>,32618,9,cold,1,1
7,0.0-4.0-0.9,0,3377,<p style='font-size: 25px;'>The weather is cool. <br>Would you conclude that the weather is not cold? </p>,41859,13,cold,1,1
8,0.0-4.0-0.4,1,15629,<p style='font-size: 25px;'>The weather is cool. <br>Would you conclude that the weather is not cold? </p>,81233,8,cold,1,1
8,0.0-4.0-0.8,1,21980,<p style='font-size: 25px;'>The weather is cool. <br>Would you conclude that the weather is not cold? </p>,121893,12,cold,1,1
11,0.0-4.0-0.0,0,6950,<p style='font-size: 25px;'>The weather is cool. <br>Would you conclude that the weather is not cold? </p>,84571,4,cold,1,1
11,0.0-4.0-0.11,0,6230,<p style='font-size: 25px;'>The weather is cool. <br>Would you conclude that the weather is not cold? </p>,161295,15,cold,1,1
12,0.0-4.0-0.3,0,5168,<p style='font-size: 25px;'>The weather is cool. <br>Would you conclude that the weather is not cold? </p>,66942,7,cold,1,1
12,0.0-4.0-0.8,0,3949,<p style='font-size: 25px;'>The weather is cool. <br>Would you conclude that the weather is not cold? </p>,99315,12,cold,1,1
13,0.0-4.0-0.1,0,8458,<p style='font-size: 25px;'>The weather is cool. <br>Would you conclude that the weather is not cold? </p>,104977,5,cold,1,1
13,0.0-4.0-0.10,0,3389,<p style='font-size: 25px;'>The weather is cool. <br>Would you conclude that the weather is not cold? </p>,155423,14,cold,1,1
14,0.0-4.0-0.0,1,19310,<p style='font-size: 25px;'>The weather is cool. <br>Would you conclude that the weather is not cold? </p>,55952,4,cold,1,1
14,0.0-4.0-0.7,1,10699,<p style='font-size: 25px;'>The weather is cool. <br>Would you conclude that the weather is not cold? </p>,110174,11,cold,1,1
15,0.0-4.0-0.2,0,2974,<p style='font-size: 25px;'>The weather is cool. <br>Would you conclude that the weather is not cold? </p>,31124,6,cold,1,1
15,0.0-4.0-0.9,0,1636,<p style='font-size: 25px;'>The weather is cool. <br>Would you conclude that the weather is not cold? </p>,63741,13,cold,1,1
16,0.0-4.0-0.3,1,3271,<p style='font-size: 25px;'>The weather is cool. <br>Would you conclude that the weather is not cold? </p>,60659,7,cold,1,1
16,0.0-4.0-0.7,1,3863,<p style='font-size: 25px;'>The weather is cool. <br>Would you conclude that the weather is not cold? </p>,74075,11,cold,1,1
17,0.0-4.0-0.3,1,5056,<p style='font-size: 25px;'>The weather is cool. <br>Would you conclude that the weather is not cold? </p>,78392,7,cold,1,1
17,0.0-4.0-0.9,1,4621,<p style='font-size: 25px;'>The weather is cool. <br>Would you conclude that the weather is not cold? </p>,107550,13,cold,1,1
18,0.0-4.0-0.1,0,7773,<p style='font-size: 25px;'>The weather is cool. <br>Would you conclude that the weather is not cold? </p>,57449,5,cold,1,1
18,0.0-4.0-0.12,0,4045,<p style='font-size: 25px;'>The weather is cool. <br>Would you conclude that the weather is not cold? </p>,127581,16,cold,1,1
20,0.0-4.0-0.5,0,2126,<p style='font-size: 25px;'>The weather is cool. <br>Would you conclude that the weather is not cold? </p>,35936,9,cold,1,1
20,0.0-4.0-0.11,0,1726,<p style='font-size: 25px;'>The weather is cool. <br>Would you conclude that the weather is not cold? </p>,49568,15,cold,1,1
21,0.0-4.0-0.1,1,4275,<p style='font-size: 25px;'>The weather is cool. <br>Would you conclude that the weather is not cold? </p>,34076,5,cold,1,1
21,0.0-4.0-0.10,1,2152,<p style='font-size: 25px;'>The weather is cool. <br>Would you conclude that the weather is not cold? </p>,63452,14,cold,1,1
22,0.0-4.0-0.4,1,5149,<p style='font-size: 25px;'>The weather is cool. <br>Would you conclude that the weather is not cold? </p>,40953,8,cold,1,1
22,0.0-4.0-0.11,1,6005,<p style='font-size: 25px;'>The weather is cool. <br>Would you conclude that the weather is not cold? </p>,84807,15,cold,1,1
23,0.0-4.0-0.3,0,16740,<p style='font-size: 25px;'>The weather is cool. <br>Would you conclude that the weather is not cold? </p>,103852,7,cold,1,1
23,0.0-4.0-0.11,0,1676,<p style='font-size: 25px;'>The weather is cool. <br>Would you conclude that the weather is not cold? </p>,178153,15,cold,1,1
24,0.0-4.0-0.2,1,17703,<p style='font-size: 25px;'>The weather is cool. <br>Would you conclude that the weather is not cold? </p>,62674,6,cold,1,1
24,0.0-4.0-0.7,0,7383,<p style='font-size: 25px;'>The weather is cool. <br>Would you conclude that the weather is not cold? </p>,117242,11,cold,1,1
25,0.0-4.0-0.6,0,11198,<p style='font-size: 25px;'>The weather is cool. <br>Would you conclude that the weather is not cold? </p>,69736,10,cold,1,1
25,0.0-4.0-0.7,0,3704,<p style='font-size: 25px;'>The weather is cool. <br>Would you conclude that the weather is not cold? </p>,73442,11,cold,1,1
26,0.0-4.0-0.2,1,9637,<p style='font-size: 25px;'>The weather is cool. <br>Would you conclude that the weather is not cold? </p>,65544,6,cold,1,1
26,0.0-4.0-0.8,1,7499,<p style='font-size: 25px;'>The weather is cool. <br>Would you conclude that the weather is not cold? </p>,99141,12,cold,1,1
27,0.0-4.0-0.0,1,8430,<p style='font-size: 25px;'>The weather is cool. <br>Would you conclude that the weather is not cold? </p>,106262,4,cold,1,1
27,0.0-4.0-0.9,1,5730,<p style='font-size: 25px;'>The weather is cool. <br>Would you conclude that the weather is not cold? </p>,158847,13,cold,1,1
28,0.0-4.0-0.2,0,11748,<p style='font-size: 25px;'>The weather is cool. <br>Would you conclude that the weather is not cold? </p>,227693,6,cold,1,1
28,0.0-4.0-0.8,0,13747,<p style='font-size: 25px;'>The weather is cool. <br>Would you conclude that the weather is not cold? </p>,284189,12,cold,1,1
29,0.0-4.0-0.2,0,10407,<p style='font-size: 25px;'>The weather is cool. <br>Would you conclude that the weather is not cold? </p>,112767,6,cold,1,1
29,0.0-4.0-0.10,0,6136,<p style='font-size: 25px;'>The weather is cool. <br>Would you conclude that the weather is not cold? </p>,234239,14,cold,1,1
30,0.0-4.0-0.0,1,7636,<p style='font-size: 25px;'>The weather is cool. <br>Would you conclude that the weather is not cold? </p>,24887,4,cold,1,1
30,0.0-4.0-0.9,1,3163,<p style='font-size: 25px;'>The weather is cool. <br>Would you conclude that the weather is not cold? </p>,54769,13,cold,1,1
32,0.0-4.0-0.4,0,7094,<p style='font-size: 25px;'>The weather is cool. <br>Would you conclude that the weather is not cold? </p>,69118,8,cold,1,1
32,0.0-4.0-0.8,0,3703,<p style='font-size: 25px;'>The weather is cool. <br>Would you conclude that the weather is not cold? </p>,167841,12,cold,1,1
33,0.0-4.0-0.4,0,10349,<p style='font-size: 25px;'>The weather is cool. <br>Would you conclude that the weather is not cold? </p>,81200,8,cold,1,1
33,0.0-4.0-0.10,0,4655,<p style='font-size: 25px;'>The weather is cool. <br>Would you conclude that the weather is not cold? </p>,116973,14,cold,1,1
6,0.0-5.0-0.2,1,7926,<p style='font-size: 25px;'>A: Is the weather cold? <br>B: The weather is cool. <br>Would you conclude that the weather is not cold? </p>,162247,20,cold,2,3
6,0.0-5.0-0.21,1,2780,<p style='font-size: 25px;'>A: Is the weather cold? <br>B: The weather is cool. <br>Would you conclude that the weather is not cold? </p>,276638,39,cold,2,3
7,0.0-5.0-0.4,0,3209,<p style='font-size: 25px;'>A: Is the weather cold? <br>B: The weather is cool. <br>Would you conclude that the weather is not cold? </p>,68676,22,cold,2,3
7,0.0-5.0-0.25,0,1640,<p style='font-size: 25px;'>A: Is the weather cold? <br>B: The weather is cool. <br>Would you conclude that the weather is not cold? </p>,109674,43,cold,2,3
8,0.0-5.0-0.12,1,4111,<p style='font-size: 25px;'>A: Is the weather cold? <br>B: The weather is cool. <br>Would you conclude that the weather is not cold? </p>,221502,30,cold,2,3
8,0.0-5.0-0.21,1,3641,<p style='font-size: 25px;'>A: Is the weather cold? <br>B: The weather is cool. <br>Would you conclude that the weather is not cold? </p>,255138,39,cold,2,3
11,0.0-5.0-0.0,0,10363,<p style='font-size: 25px;'>A: Is the weather cold? <br>B: The weather is cool. <br>Would you conclude that the weather is not cold? </p>,182049,18,cold,2,3
11,0.0-5.0-0.16,0,4375,<p style='font-size: 25px;'>A: Is the weather cold? <br>B: The weather is cool. <br>Would you conclude that the weather is not cold? </p>,246594,34,cold,2,3
12,0.0-5.0-0.4,0,5613,<p style='font-size: 25px;'>A: Is the weather cold? <br>B: The weather is cool. <br>Would you conclude that the weather is not cold? </p>,167680,22,cold,2,3
12,0.0-5.0-0.25,0,4298,<p style='font-size: 25px;'>A: Is the weather cold? <br>B: The weather is cool. <br>Would you conclude that the weather is not cold? </p>,290351,43,cold,2,3
13,0.0-5.0-0.0,0,13214,<p style='font-size: 25px;'>A: Is the weather cold? <br>B: The weather is cool. <br>Would you conclude that the weather is not cold? </p>,179305,18,cold,2,3
13,0.0-5.0-0.21,0,3697,<p style='font-size: 25px;'>A: Is the weather cold? <br>B: The weather is cool. <br>Would you conclude that the weather is not cold? </p>,319087,39,cold,2,3
14,0.0-5.0-0.12,1,10937,<p style='font-size: 25px;'>A: Is the weather cold? <br>B: The weather is cool. <br>Would you conclude that the weather is not cold? </p>,283199,30,cold,2,3
14,0.0-5.0-0.24,1,10126,<p style='font-size: 25px;'>A: Is the weather cold? <br>B: The weather is cool. <br>Would you conclude that the weather is not cold? </p>,382191,42,cold,2,3
15,0.0-5.0-0.12,0,4202,<p style='font-size: 25px;'>A: Is the weather cold? <br>B: The weather is cool. <br>Would you conclude that the weather is not cold? </p>,126332,30,cold,2,3
15,0.0-5.0-0.20,0,2952,<p style='font-size: 25px;'>A: Is the weather cold? <br>B: The weather is cool. <br>Would you conclude that the weather is not cold? </p>,149785,38,cold,2,3
16,0.0-5.0-0.1,1,2424,<p style='font-size: 25px;'>A: Is the weather cold? <br>B: The weather is cool. <br>Would you conclude that the weather is not cold? </p>,103547,19,cold,2,3
16,0.0-5.0-0.14,0,3760,<p style='font-size: 25px;'>A: Is the weather cold? <br>B: The weather is cool. <br>Would you conclude that the weather is not cold? </p>,157851,32,cold,2,3
17,0.0-5.0-0.1,1,5362,<p style='font-size: 25px;'>A: Is the weather cold? <br>B: The weather is cool. <br>Would you conclude that the weather is not cold? </p>,143609,19,cold,2,3
17,0.0-5.0-0.23,1,4501,<p style='font-size: 25px;'>A: Is the weather cold? <br>B: The weather is cool. <br>Would you conclude that the weather is not cold? </p>,235663,41,cold,2,3
18,0.0-5.0-0.3,0,19455,<p style='font-size: 25px;'>A: Is the weather cold? <br>B: The weather is cool. <br>Would you conclude that the weather is not cold? </p>,178713,21,cold,2,3
18,0.0-5.0-0.15,0,3471,<p style='font-size: 25px;'>A: Is the weather cold? <br>B: The weather is cool. <br>Would you conclude that the weather is not cold? </p>,250045,33,cold,2,3
20,0.0-5.0-0.9,0,5222,<p style='font-size: 25px;'>A: Is the weather cold? <br>B: The weather is cool. <br>Would you conclude that the weather is not cold? </p>,92088,27,cold,2,3
20,0.0-5.0-0.13,0,3142,<p style='font-size: 25px;'>A: Is the weather cold? <br>B: The weather is cool. <br>Would you conclude that the weather is not cold? </p>,100544,31,cold,2,3
21,0.0-5.0-0.11,1,4231,<p style='font-size: 25px;'>A: Is the weather cold? <br>B: The weather is cool. <br>Would you conclude that the weather is not cold? </p>,132320,29,cold,2,3
21,0.0-5.0-0.20,1,3607,<p style='font-size: 25px;'>A: Is the weather cold? <br>B: The weather is cool. <br>Would you conclude that the weather is not cold? </p>,162324,38,cold,2,3
22,0.0-5.0-0.1,1,27814,<p style='font-size: 25px;'>A: Is the weather cold? <br>B: The weather is cool. <br>Would you conclude that the weather is not cold? </p>,136456,19,cold,2,3
22,0.0-5.0-0.22,0,2245,<p style='font-size: 25px;'>A: Is the weather cold? <br>B: The weather is cool. <br>Would you conclude that the weather is not cold? </p>,264857,40,cold,2,3
23,0.0-5.0-0.0,0,15490,<p style='font-size: 25px;'>A: Is the weather cold? <br>B: The weather is cool. <br>Would you conclude that the weather is not cold? </p>,198389,18,cold,2,3
23,0.0-5.0-0.23,0,1620,<p style='font-size: 25px;'>A: Is the weather cold? <br>B: The weather is cool. <br>Would you conclude that the weather is not cold? </p>,254049,41,cold,2,3
24,0.0-5.0-0.10,0,2679,<p style='font-size: 25px;'>A: Is the weather cold? <br>B: The weather is cool. <br>Would you conclude that the weather is not cold? </p>,242202,28,cold,2,3
24,0.0-5.0-0.22,0,3023,<p style='font-size: 25px;'>A: Is the weather cold? <br>B: The weather is cool. <br>Would you conclude that the weather is not cold? </p>,313457,40,cold,2,3
25,0.0-5.0-0.5,1,8822,<p style='font-size: 25px;'>A: Is the weather cold? <br>B: The weather is cool. <br>Would you conclude that the weather is not cold? </p>,147883,23,cold,2,3
25,0.0-5.0-0.14,1,7264,<p style='font-size: 25px;'>A: Is the weather cold? <br>B: The weather is cool. <br>Would you conclude that the weather is not cold? </p>,203931,32,cold,2,3
26,0.0-5.0-0.10,1,6408,<p style='font-size: 25px;'>A: Is the weather cold? <br>B: The weather is cool. <br>Would you conclude that the weather is not cold? </p>,200665,28,cold,2,3
26,0.0-5.0-0.18,1,8501,<p style='font-size: 25px;'>A: Is the weather cold? <br>B: The weather is cool. <br>Would you conclude that the weather is not cold? </p>,254367,36,cold,2,3
27,0.0-5.0-0.6,1,6175,<p style='font-size: 25px;'>A: Is the weather cold? <br>B: The weather is cool. <br>Would you conclude that the weather is not cold? </p>,237347,24,cold,2,3
27,0.0-5.0-0.19,1,6009,<p style='font-size: 25px;'>A: Is the weather cold? <br>B: The weather is cool. <br>Would you conclude that the weather is not cold? </p>,309576,37,cold,2,3
28,0.0-5.0-0.2,0,10164,<p style='font-size: 25px;'>A: Is the weather cold? <br>B: The weather is cool. <br>Would you conclude that the weather is not cold? </p>,374147,20,cold,2,3
28,0.0-5.0-0.23,0,23730,<p style='font-size: 25px;'>A: Is the weather cold? <br>B: The weather is cool. <br>Would you conclude that the weather is not cold? </p>,593887,41,cold,2,3
29,0.0-5.0-0.8,0,8647,<p style='font-size: 25px;'>A: Is the weather cold? <br>B: The weather is cool. <br>Would you conclude that the weather is not cold? </p>,345959,26,cold,2,3
29,0.0-5.0-0.22,1,4710,<p style='font-size: 25px;'>A: Is the weather cold? <br>B: The weather is cool. <br>Would you conclude that the weather is not cold? </p>,470526,40,cold,2,3
30,0.0-5.0-0.10,1,1606,<p style='font-size: 25px;'>A: Is the weather cold? <br>B: The weather is cool. <br>Would you conclude that the weather is not cold? </p>,98634,28,cold,2,3
30,0.0-5.0-0.18,0,1574,<p style='font-size: 25px;'>A: Is the weather cold? <br>B: The weather is cool. <br>Would you conclude that the weather is not cold? </p>,112699,36,cold,2,3
32,0.0-5.0-0.12,0,1478,<p style='font-size: 25px;'>A: Is the weather cold? <br>B: The weather is cool. <br>Would you conclude that the weather is not cold? </p>,480241,30,cold,2,3
32,0.0-5.0-0.22,0,2183,<p style='font-size: 25px;'>A: Is the weather cold? <br>B: The weather is cool. <br>Would you conclude that the weather is not cold? </p>,592738,40,cold,2,3
33,0.0-5.0-0.4,0,7769,<p style='font-size: 25px;'>A: Is the weather cold? <br>B: The weather is cool. <br>Would you conclude that the weather is not cold? </p>,164470,22,cold,2,3
33,0.0-5.0-0.19,0,9465,<p style='font-size: 25px;'>A: Is the weather cold? <br>B: The weather is cool. <br>Would you conclude that the weather is not cold? </p>,277705,37,cold,2,3
6,0.0-5.0-0.7,1,5857,<p style='font-size: 25px;'>A: Is the weather cool? <br>B: The weather is cool. <br>Would you conclude that the weather is not cold?</p>,193596,25,cold,2,2
6,0.0-5.0-0.17,1,2318,<p style='font-size: 25px;'>A: Is the weather cool? <br>B: The weather is cool. <br>Would you conclude that the weather is not cold?</p>,254751,35,cold,2,2
7,0.0-5.0-0.12,0,1082,<p style='font-size: 25px;'>A: Is the weather cool? <br>B: The weather is cool. <br>Would you conclude that the weather is not cold?</p>,83879,30,cold,2,2
7,0.0-5.0-0.15,0,2265,<p style='font-size: 25px;'>A: Is the weather cool? <br>B: The weather is cool. <br>Would you conclude that the weather is not cold?</p>,90467,33,cold,2,2
8,0.0-5.0-0.10,1,4159,<p style='font-size: 25px;'>A: Is the weather cool? <br>B: The weather is cool. <br>Would you conclude that the weather is not cold?</p>,210942,28,cold,2,2
8,0.0-5.0-0.25,1,2537,<p style='font-size: 25px;'>A: Is the weather cool? <br>B: The weather is cool. <br>Would you conclude that the weather is not cold?</p>,267293,43,cold,2,2
11,0.0-5.0-0.4,0,3643,<p style='font-size: 25px;'>A: Is the weather cool? <br>B: The weather is cool. <br>Would you conclude that the weather is not cold?</p>,196307,22,cold,2,2
11,0.0-5.0-0.21,0,2827,<p style='font-size: 25px;'>A: Is the weather cool? <br>B: The weather is cool. <br>Would you conclude that the weather is not cold?</p>,266190,39,cold,2,2
12,0.0-5.0-0.0,0,9686,<p style='font-size: 25px;'>A: Is the weather cool? <br>B: The weather is cool. <br>Would you conclude that the weather is not cold?</p>,132915,18,cold,2,2
12,0.0-5.0-0.22,0,3050,<p style='font-size: 25px;'>A: Is the weather cool? <br>B: The weather is cool. <br>Would you conclude that the weather is not cold?</p>,279117,40,cold,2,2
13,0.0-5.0-0.12,0,6446,<p style='font-size: 25px;'>A: Is the weather cool? <br>B: The weather is cool. <br>Would you conclude that the weather is not cold?</p>,261814,30,cold,2,2
13,0.0-5.0-0.22,0,4099,<p style='font-size: 25px;'>A: Is the weather cool? <br>B: The weather is cool. <br>Would you conclude that the weather is not cold?</p>,323186,40,cold,2,2
14,0.0-5.0-0.1,1,7818,<p style='font-size: 25px;'>A: Is the weather cool? <br>B: The weather is cool. <br>Would you conclude that the weather is not cold?</p>,179190,19,cold,2,2
14,0.0-5.0-0.18,1,9361,<p style='font-size: 25px;'>A: Is the weather cool? <br>B: The weather is cool. <br>Would you conclude that the weather is not cold?</p>,323167,36,cold,2,2
15,0.0-5.0-0.6,0,3146,<p style='font-size: 25px;'>A: Is the weather cool? <br>B: The weather is cool. <br>Would you conclude that the weather is not cold?</p>,104577,24,cold,2,2
15,0.0-5.0-0.22,0,3022,<p style='font-size: 25px;'>A: Is the weather cool? <br>B: The weather is cool. <br>Would you conclude that the weather is not cold?</p>,156179,40,cold,2,2
16,0.0-5.0-0.2,1,5511,<p style='font-size: 25px;'>A: Is the weather cool? <br>B: The weather is cool. <br>Would you conclude that the weather is not cold?</p>,109059,20,cold,2,2
16,0.0-5.0-0.19,1,2544,<p style='font-size: 25px;'>A: Is the weather cool? <br>B: The weather is cool. <br>Would you conclude that the weather is not cold?</p>,172155,37,cold,2,2
17,0.0-5.0-0.2,1,2704,<p style='font-size: 25px;'>A: Is the weather cool? <br>B: The weather is cool. <br>Would you conclude that the weather is not cold?</p>,146314,20,cold,2,2
17,0.0-5.0-0.13,1,5336,<p style='font-size: 25px;'>A: Is the weather cool? <br>B: The weather is cool. <br>Would you conclude that the weather is not cold?</p>,198030,31,cold,2,2
18,0.0-5.0-0.7,0,4077,<p style='font-size: 25px;'>A: Is the weather cool? <br>B: The weather is cool. <br>Would you conclude that the weather is not cold?</p>,195899,25,cold,2,2
18,0.0-5.0-0.17,0,5017,<p style='font-size: 25px;'>A: Is the weather cool? <br>B: The weather is cool. <br>Would you conclude that the weather is not cold?</p>,257073,35,cold,2,2
20,0.0-5.0-0.0,0,7486,<p style='font-size: 25px;'>A: Is the weather cool? <br>B: The weather is cool. <br>Would you conclude that the weather is not cold?</p>,60552,18,cold,2,2
20,0.0-5.0-0.21,0,4550,<p style='font-size: 25px;'>A: Is the weather cool? <br>B: The weather is cool. <br>Would you conclude that the weather is not cold?</p>,124223,39,cold,2,2
21,0.0-5.0-0.4,1,5491,<p style='font-size: 25px;'>A: Is the weather cool? <br>B: The weather is cool. <br>Would you conclude that the weather is not cold?</p>,103612,22,cold,2,2
21,0.0-5.0-0.13,1,4975,<p style='font-size: 25px;'>A: Is the weather cool? <br>B: The weather is cool. <br>Would you conclude that the weather is not cold?</p>,138704,31,cold,2,2
22,0.0-5.0-0.9,1,4974,<p style='font-size: 25px;'>A: Is the weather cool? <br>B: The weather is cool. <br>Would you conclude that the weather is not cold?</p>,188992,27,cold,2,2
22,0.0-5.0-0.13,1,2358,<p style='font-size: 25px;'>A: Is the weather cool? <br>B: The weather is cool. <br>Would you conclude that the weather is not cold?</p>,203753,31,cold,2,2
23,0.0-5.0-0.5,0,3037,<p style='font-size: 25px;'>A: Is the weather cool? <br>B: The weather is cool. <br>Would you conclude that the weather is not cold?</p>,214129,23,cold,2,2
23,0.0-5.0-0.21,0,1547,<p style='font-size: 25px;'>A: Is the weather cool? <br>B: The weather is cool. <br>Would you conclude that the weather is not cold?</p>,250899,39,cold,2,2
24,0.0-5.0-0.0,0,14103,<p style='font-size: 25px;'>A: Is the weather cool? <br>B: The weather is cool. <br>Would you conclude that the weather is not cold?</p>,180226,18,cold,2,2
24,0.0-5.0-0.23,0,3864,<p style='font-size: 25px;'>A: Is the weather cool? <br>B: The weather is cool. <br>Would you conclude that the weather is not cold?</p>,317322,41,cold,2,2
25,0.0-5.0-0.3,0,6447,<p style='font-size: 25px;'>A: Is the weather cool? <br>B: The weather is cool. <br>Would you conclude that the weather is not cold?</p>,134318,21,cold,2,2
25,0.0-5.0-0.21,1,5173,<p style='font-size: 25px;'>A: Is the weather cool? <br>B: The weather is cool. <br>Would you conclude that the weather is not cold?</p>,249296,39,cold,2,2
26,0.0-5.0-0.3,0,4270,<p style='font-size: 25px;'>A: Is the weather cool? <br>B: The weather is cool. <br>Would you conclude that the weather is not cold?</p>,154688,21,cold,2,2
26,0.0-5.0-0.19,1,3836,<p style='font-size: 25px;'>A: Is the weather cool? <br>B: The weather is cool. <br>Would you conclude that the weather is not cold?</p>,258204,37,cold,2,2
27,0.0-5.0-0.12,1,3424,<p style='font-size: 25px;'>A: Is the weather cool? <br>B: The weather is cool. <br>Would you conclude that the weather is not cold?</p>,265476,30,cold,2,2
27,0.0-5.0-0.13,1,8150,<p style='font-size: 25px;'>A: Is the weather cool? <br>B: The weather is cool. <br>Would you conclude that the weather is not cold?</p>,273631,31,cold,2,2
28,0.0-5.0-0.4,0,10032,<p style='font-size: 25px;'>A: Is the weather cool? <br>B: The weather is cool. <br>Would you conclude that the weather is not cold?</p>,395129,22,cold,2,2
28,0.0-5.0-0.25,0,9494,<p style='font-size: 25px;'>A: Is the weather cool? <br>B: The weather is cool. <br>Would you conclude that the weather is not cold?</p>,605485,43,cold,2,2
29,0.0-5.0-0.6,0,10823,<p style='font-size: 25px;'>A: Is the weather cool? <br>B: The weather is cool. <br>Would you conclude that the weather is not cold?</p>,322927,24,cold,2,2
29,0.0-5.0-0.25,0,9807,<p style='font-size: 25px;'>A: Is the weather cool? <br>B: The weather is cool. <br>Would you conclude that the weather is not cold?</p>,496886,43,cold,2,2
30,0.0-5.0-0.11,1,1808,<p style='font-size: 25px;'>A: Is the weather cool? <br>B: The weather is cool. <br>Would you conclude that the weather is not cold?</p>,100443,29,cold,2,2
30,0.0-5.0-0.24,1,2029,<p style='font-size: 25px;'>A: Is the weather cool? <br>B: The weather is cool. <br>Would you conclude that the weather is not cold?</p>,123668,42,cold,2,2
32,0.0-5.0-0.3,0,1830,<p style='font-size: 25px;'>A: Is the weather cool? <br>B: The weather is cool. <br>Would you conclude that the weather is not cold?</p>,382247,21,cold,2,2
32,0.0-5.0-0.23,0,1803,<p style='font-size: 25px;'>A: Is the weather cool? <br>B: The weather is cool. <br>Would you conclude that the weather is not cold?</p>,594541,41,cold,2,2
33,0.0-5.0-0.12,0,5966,<p style='font-size: 25px;'>A: Is the weather cool? <br>B: The weather is cool. <br>Would you conclude that the weather is not cold?</p>,234490,30,cold,2,2
33,0.0-5.0-0.15,0,5081,<p style='font-size: 25px;'>A: Is the weather cool? <br>B: The weather is cool. <br>Would you conclude that the weather is not cold?</p>,251890,33,cold,2,2
6,0.0-4.0-0.0,1,6263,<p style='font-size: 25px;'> The problem is hard. <br>Would you conclude that the problem is not unsolvable? </p>,37717,4,hard,1,1
6,0.0-4.0-0.10,0,10839,<p style='font-size: 25px;'> The problem is hard. <br>Would you conclude that the problem is not unsolvable? </p>,104047,14,hard,1,1
7,0.0-4.0-0.1,0,2880,<p style='font-size: 25px;'> The problem is hard. <br>Would you conclude that the problem is not unsolvable? </p>,21596,5,hard,1,1
7,0.0-4.0-0.13,0,962,<p style='font-size: 25px;'> The problem is hard. <br>Would you conclude that the problem is not unsolvable? </p>,47750,17,hard,1,1
8,0.0-4.0-0.0,0,18781,<p style='font-size: 25px;'> The problem is hard. <br>Would you conclude that the problem is not unsolvable? </p>,45402,4,hard,1,1
8,0.0-4.0-0.7,0,5553,<p style='font-size: 25px;'> The problem is hard. <br>Would you conclude that the problem is not unsolvable? </p>,99911,11,hard,1,1
11,0.0-4.0-0.1,0,11618,<p style='font-size: 25px;'> The problem is hard. <br>Would you conclude that the problem is not unsolvable? </p>,96192,5,hard,1,1
11,0.0-4.0-0.13,0,5170,<p style='font-size: 25px;'> The problem is hard. <br>Would you conclude that the problem is not unsolvable? </p>,171684,17,hard,1,1
12,0.0-4.0-0.5,1,4364,<p style='font-size: 25px;'> The problem is hard. <br>Would you conclude that the problem is not unsolvable? </p>,82096,9,hard,1,1
12,0.0-4.0-0.10,0,10768,<p style='font-size: 25px;'> The problem is hard. <br>Would you conclude that the problem is not unsolvable? </p>,112781,14,hard,1,1
13,0.0-4.0-0.3,0,8544,<p style='font-size: 25px;'> The problem is hard. <br>Would you conclude that the problem is not unsolvable? </p>,119962,7,hard,1,1
13,0.0-4.0-0.13,0,2946,<p style='font-size: 25px;'> The problem is hard. <br>Would you conclude that the problem is not unsolvable? </p>,166090,17,hard,1,1
14,0.0-4.0-0.6,0,8560,<p style='font-size: 25px;'> The problem is hard. <br>Would you conclude that the problem is not unsolvable? </p>,99476,10,hard,1,1
14,0.0-4.0-0.8,0,8623,<p style='font-size: 25px;'> The problem is hard. <br>Would you conclude that the problem is not unsolvable? </p>,118799,12,hard,1,1
15,0.0-4.0-0.6,0,8319,<p style='font-size: 25px;'> The problem is hard. <br>Would you conclude that the problem is not unsolvable? </p>,47861,10,hard,1,1
15,0.0-4.0-0.11,0,3340,<p style='font-size: 25px;'> The problem is hard. <br>Would you conclude that the problem is not unsolvable? </p>,70049,15,hard,1,1
16,0.0-4.0-0.1,0,4903,<p style='font-size: 25px;'> The problem is hard. <br>Would you conclude that the problem is not unsolvable? </p>,53387,5,hard,1,1
16,0.0-4.0-0.12,1,5319,<p style='font-size: 25px;'> The problem is hard. <br>Would you conclude that the problem is not unsolvable? </p>,90035,16,hard,1,1
17,0.0-4.0-0.6,0,10304,<p style='font-size: 25px;'> The problem is hard. <br>Would you conclude that the problem is not unsolvable? </p>,94501,10,hard,1,1
17,0.0-4.0-0.10,0,11639,<p style='font-size: 25px;'> The problem is hard. <br>Would you conclude that the problem is not unsolvable? </p>,119190,14,hard,1,1
18,0.0-4.0-0.3,1,7704,<p style='font-size: 25px;'> The problem is hard. <br>Would you conclude that the problem is not unsolvable? </p>,72863,7,hard,1,1
18,0.0-4.0-0.10,0,9175,<p style='font-size: 25px;'> The problem is hard. <br>Would you conclude that the problem is not unsolvable? </p>,112267,14,hard,1,1
20,0.0-4.0-0.4,0,5710,<p style='font-size: 25px;'> The problem is hard. <br>Would you conclude that the problem is not unsolvable? </p>,33808,8,hard,1,1
20,0.0-4.0-0.12,0,1878,<p style='font-size: 25px;'> The problem is hard. <br>Would you conclude that the problem is not unsolvable? </p>,51448,16,hard,1,1
21,0.0-4.0-0.5,0,2808,<p style='font-size: 25px;'> The problem is hard. <br>Would you conclude that the problem is not unsolvable? </p>,47332,9,hard,1,1
21,0.0-4.0-0.8,0,2303,<p style='font-size: 25px;'> The problem is hard. <br>Would you conclude that the problem is not unsolvable? </p>,57536,12,hard,1,1
22,0.0-4.0-0.6,0,5973,<p style='font-size: 25px;'> The problem is hard. <br>Would you conclude that the problem is not unsolvable? </p>,52632,10,hard,1,1
22,0.0-4.0-0.13,1,3518,<p style='font-size: 25px;'> The problem is hard. <br>Would you conclude that the problem is not unsolvable? </p>,93840,17,hard,1,1
23,0.0-4.0-0.2,1,20096,<p style='font-size: 25px;'> The problem is hard. <br>Would you conclude that the problem is not unsolvable? </p>,87112,6,hard,1,1
23,0.0-4.0-0.10,1,8265,<p style='font-size: 25px;'> The problem is hard. <br>Would you conclude that the problem is not unsolvable? </p>,176476,14,hard,1,1
24,0.0-4.0-0.3,0,9790,<p style='font-size: 25px;'> The problem is hard. <br>Would you conclude that the problem is not unsolvable? </p>,72465,7,hard,1,1
24,0.0-4.0-0.10,0,12855,<p style='font-size: 25px;'> The problem is hard. <br>Would you conclude that the problem is not unsolvable? </p>,141074,14,hard,1,1
25,0.0-4.0-0.4,1,4000,<p style='font-size: 25px;'> The problem is hard. <br>Would you conclude that the problem is not unsolvable? </p>,55847,8,hard,1,1
25,0.0-4.0-0.8,0,8820,<p style='font-size: 25px;'> The problem is hard. <br>Would you conclude that the problem is not unsolvable? </p>,82262,12,hard,1,1
26,0.0-4.0-0.3,0,10049,<p style='font-size: 25px;'> The problem is hard. <br>Would you conclude that the problem is not unsolvable? </p>,75595,7,hard,1,1
26,0.0-4.0-0.12,0,6298,<p style='font-size: 25px;'> The problem is hard. <br>Would you conclude that the problem is not unsolvable? </p>,117213,16,hard,1,1
27,0.0-4.0-0.1,0,9625,<p style='font-size: 25px;'> The problem is hard. <br>Would you conclude that the problem is not unsolvable? </p>,115894,5,hard,1,1
27,0.0-4.0-0.10,0,9089,<p style='font-size: 25px;'> The problem is hard. <br>Would you conclude that the problem is not unsolvable? </p>,167943,14,hard,1,1
28,0.0-4.0-0.5,1,10498,<p style='font-size: 25px;'> The problem is hard. <br>Would you conclude that the problem is not unsolvable? </p>,261358,9,hard,1,1
28,0.0-4.0-0.12,1,8197,<p style='font-size: 25px;'> The problem is hard. <br>Would you conclude that the problem is not unsolvable? </p>,321451,16,hard,1,1
29,0.0-4.0-0.3,1,81999,<p style='font-size: 25px;'> The problem is hard. <br>Would you conclude that the problem is not unsolvable? </p>,194767,7,hard,1,1
29,0.0-4.0-0.11,1,11176,<p style='font-size: 25px;'> The problem is hard. <br>Would you conclude that the problem is not unsolvable? </p>,245415,15,hard,1,1
30,0.0-4.0-0.2,1,2771,<p style='font-size: 25px;'> The problem is hard. <br>Would you conclude that the problem is not unsolvable? </p>,32521,6,hard,1,1
30,0.0-4.0-0.13,1,2439,<p style='font-size: 25px;'> The problem is hard. <br>Would you conclude that the problem is not unsolvable? </p>,65011,17,hard,1,1
32,0.0-4.0-0.2,0,7261,<p style='font-size: 25px;'> The problem is hard. <br>Would you conclude that the problem is not unsolvable? </p>,60120,6,hard,1,1
32,0.0-4.0-0.13,1,2954,<p style='font-size: 25px;'> The problem is hard. <br>Would you conclude that the problem is not unsolvable? </p>,363766,17,hard,1,1
33,0.0-4.0-0.5,0,7380,<p style='font-size: 25px;'> The problem is hard. <br>Would you conclude that the problem is not unsolvable? </p>,88580,9,hard,1,1
33,0.0-4.0-0.8,0,7021,<p style='font-size: 25px;'> The problem is hard. <br>Would you conclude that the problem is not unsolvable? </p>,106610,12,hard,1,1
6,0.0-5.0-0.0,0,21239,<p style='font-size: 25px;'>A: Is the problem hard? <br>B: The problem is hard. <br>Would you conclude that the problem is not unsolvable? </p>,147744,18,hard,2,2
6,0.0-5.0-0.16,0,4258,<p style='font-size: 25px;'>A: Is the problem hard? <br>B: The problem is hard. <br>Would you conclude that the problem is not unsolvable? </p>,252430,34,hard,2,2
7,0.0-5.0-0.3,0,2542,<p style='font-size: 25px;'>A: Is the problem hard? <br>B: The problem is hard. <br>Would you conclude that the problem is not unsolvable? </p>,65466,21,hard,2,2
7,0.0-5.0-0.18,0,4780,<p style='font-size: 25px;'>A: Is the problem hard? <br>B: The problem is hard. <br>Would you conclude that the problem is not unsolvable? </p>,97940,36,hard,2,2
8,0.0-5.0-0.5,0,3649,<p style='font-size: 25px;'>A: Is the problem hard? <br>B: The problem is hard. <br>Would you conclude that the problem is not unsolvable? </p>,189928,23,hard,2,2
8,0.0-5.0-0.18,0,3184,<p style='font-size: 25px;'>A: Is the problem hard? <br>B: The problem is hard. <br>Would you conclude that the problem is not unsolvable? </p>,243991,36,hard,2,2
11,0.0-5.0-0.5,0,2710,<p style='font-size: 25px;'>A: Is the problem hard? <br>B: The problem is hard. <br>Would you conclude that the problem is not unsolvable? </p>,199019,23,hard,2,2
11,0.0-5.0-0.24,0,4161,<p style='font-size: 25px;'>A: Is the problem hard? <br>B: The problem is hard. <br>Would you conclude that the problem is not unsolvable? </p>,276536,42,hard,2,2
12,0.0-5.0-0.3,0,6686,<p style='font-size: 25px;'>A: Is the problem hard? <br>B: The problem is hard. <br>Would you conclude that the problem is not unsolvable? </p>,162066,21,hard,2,2
12,0.0-5.0-0.21,0,3463,<p style='font-size: 25px;'>A: Is the problem hard? <br>B: The problem is hard. <br>Would you conclude that the problem is not unsolvable? </p>,276066,39,hard,2,2
13,0.0-5.0-0.7,0,7956,<p style='font-size: 25px;'>A: Is the problem hard? <br>B: The problem is hard. <br>Would you conclude that the problem is not unsolvable? </p>,231047,25,hard,2,2
13,0.0-5.0-0.24,0,5927,<p style='font-size: 25px;'>A: Is the problem hard? <br>B: The problem is hard. <br>Would you conclude that the problem is not unsolvable? </p>,335087,42,hard,2,2
14,0.0-5.0-0.3,0,10524,<p style='font-size: 25px;'>A: Is the problem hard? <br>B: The problem is hard. <br>Would you conclude that the problem is not unsolvable? </p>,199357,21,hard,2,2
14,0.0-5.0-0.25,0,7022,<p style='font-size: 25px;'>A: Is the problem hard? <br>B: The problem is hard. <br>Would you conclude that the problem is not unsolvable? </p>,389214,43,hard,2,2
15,0.0-5.0-0.1,0,3514,<p style='font-size: 25px;'>A: Is the problem hard? <br>B: The problem is hard. <br>Would you conclude that the problem is not unsolvable? </p>,84559,19,hard,2,2
15,0.0-5.0-0.14,0,2507,<p style='font-size: 25px;'>A: Is the problem hard? <br>B: The problem is hard. <br>Would you conclude that the problem is not unsolvable? </p>,133415,32,hard,2,2
16,0.0-5.0-0.4,0,12752,<p style='font-size: 25px;'>A: Is the problem hard? <br>B: The problem is hard. <br>Would you conclude that the problem is not unsolvable? </p>,125139,22,hard,2,2
16,0.0-5.0-0.23,0,3048,<p style='font-size: 25px;'>A: Is the problem hard? <br>B: The problem is hard. <br>Would you conclude that the problem is not unsolvable? </p>,186123,41,hard,2,2
17,0.0-5.0-0.10,0,9760,<p style='font-size: 25px;'>A: Is the problem hard? <br>B: The problem is hard. <br>Would you conclude that the problem is not unsolvable? </p>,185307,28,hard,2,2
17,0.0-5.0-0.15,0,4007,<p style='font-size: 25px;'>A: Is the problem hard? <br>B: The problem is hard. <br>Would you conclude that the problem is not unsolvable? </p>,205019,33,hard,2,2
18,0.0-5.0-0.5,0,6076,<p style='font-size: 25px;'>A: Is the problem hard? <br>B: The problem is hard. <br>Would you conclude that the problem is not unsolvable? </p>,190429,23,hard,2,2
18,0.0-5.0-0.24,0,2073,<p style='font-size: 25px;'>A: Is the problem hard? <br>B: The problem is hard. <br>Would you conclude that the problem is not unsolvable? </p>,276433,42,hard,2,2
20,0.0-5.0-0.10,0,1782,<p style='font-size: 25px;'>A: Is the problem hard? <br>B: The problem is hard. <br>Would you conclude that the problem is not unsolvable? </p>,93872,28,hard,2,2
20,0.0-5.0-0.18,0,2270,<p style='font-size: 25px;'>A: Is the problem hard? <br>B: The problem is hard. <br>Would you conclude that the problem is not unsolvable? </p>,115072,36,hard,2,2
21,0.0-5.0-0.8,0,3364,<p style='font-size: 25px;'>A: Is the problem hard? <br>B: The problem is hard. <br>Would you conclude that the problem is not unsolvable? </p>,119785,26,hard,2,2
21,0.0-5.0-0.21,0,6003,<p style='font-size: 25px;'>A: Is the problem hard? <br>B: The problem is hard. <br>Would you conclude that the problem is not unsolvable? </p>,168328,39,hard,2,2
22,0.0-5.0-0.0,1,14797,<p style='font-size: 25px;'>A: Is the problem hard? <br>B: The problem is hard. <br>Would you conclude that the problem is not unsolvable? </p>,108640,18,hard,2,2
22,0.0-5.0-0.21,1,3415,<p style='font-size: 25px;'>A: Is the problem hard? <br>B: The problem is hard. <br>Would you conclude that the problem is not unsolvable? </p>,262608,39,hard,2,2
23,0.0-5.0-0.7,1,1907,<p style='font-size: 25px;'>A: Is the problem hard? <br>B: The problem is hard. <br>Would you conclude that the problem is not unsolvable? </p>,222260,25,hard,2,2
23,0.0-5.0-0.22,1,1528,<p style='font-size: 25px;'>A: Is the problem hard? <br>B: The problem is hard. <br>Would you conclude that the problem is not unsolvable? </p>,252429,40,hard,2,2
24,0.0-5.0-0.6,0,3519,<p style='font-size: 25px;'>A: Is the problem hard? <br>B: The problem is hard. <br>Would you conclude that the problem is not unsolvable? </p>,219385,24,hard,2,2
24,0.0-5.0-0.16,0,5520,<p style='font-size: 25px;'>A: Is the problem hard? <br>B: The problem is hard. <br>Would you conclude that the problem is not unsolvable? </p>,273219,34,hard,2,2
25,0.0-5.0-0.9,1,3966,<p style='font-size: 25px;'>A: Is the problem hard? <br>B: The problem is hard. <br>Would you conclude that the problem is not unsolvable? </p>,172579,27,hard,2,2
25,0.0-5.0-0.23,0,4098,<p style='font-size: 25px;'>A: Is the problem hard? <br>B: The problem is hard. <br>Would you conclude that the problem is not unsolvable? </p>,264586,41,hard,2,2
26,0.0-5.0-0.1,0,7482,<p style='font-size: 25px;'>A: Is the problem hard? <br>B: The problem is hard. <br>Would you conclude that the problem is not unsolvable? </p>,145186,19,hard,2,2
26,0.0-5.0-0.20,0,7824,<p style='font-size: 25px;'>A: Is the problem hard? <br>B: The problem is hard. <br>Would you conclude that the problem is not unsolvable? </p>,266030,38,hard,2,2
27,0.0-5.0-0.4,0,6209,<p style='font-size: 25px;'>A: Is the problem hard? <br>B: The problem is hard. <br>Would you conclude that the problem is not unsolvable? </p>,223735,22,hard,2,2
27,0.0-5.0-0.14,0,3285,<p style='font-size: 25px;'>A: Is the problem hard? <br>B: The problem is hard. <br>Would you conclude that the problem is not unsolvable? </p>,276919,32,hard,2,2
28,0.0-5.0-0.1,1,19512,<p style='font-size: 25px;'>A: Is the problem hard? <br>B: The problem is hard. <br>Would you conclude that the problem is not unsolvable? </p>,363981,19,hard,2,2
28,0.0-5.0-0.22,1,10016,<p style='font-size: 25px;'>A: Is the problem hard? <br>B: The problem is hard. <br>Would you conclude that the problem is not unsolvable? </p>,570229,40,hard,2,2
29,0.0-5.0-0.12,1,14391,<p style='font-size: 25px;'>A: Is the problem hard? <br>B: The problem is hard. <br>Would you conclude that the problem is not unsolvable? </p>,404118,30,hard,2,2
29,0.0-5.0-0.24,1,8111,<p style='font-size: 25px;'>A: Is the problem hard? <br>B: The problem is hard. <br>Would you conclude that the problem is not unsolvable? </p>,487078,42,hard,2,2
30,0.0-5.0-0.0,0,7984,<p style='font-size: 25px;'>A: Is the problem hard? <br>B: The problem is hard. <br>Would you conclude that the problem is not unsolvable? </p>,72997,18,hard,2,2
30,0.0-5.0-0.17,1,1647,<p style='font-size: 25px;'>A: Is the problem hard? <br>B: The problem is hard. <br>Would you conclude that the problem is not unsolvable? </p>,111124,35,hard,2,2
32,0.0-5.0-0.7,1,2567,<p style='font-size: 25px;'>A: Is the problem hard? <br>B: The problem is hard. <br>Would you conclude that the problem is not unsolvable? </p>,471403,25,hard,2,2
32,0.0-5.0-0.24,1,1653,<p style='font-size: 25px;'>A: Is the problem hard? <br>B: The problem is hard. <br>Would you conclude that the problem is not unsolvable? </p>,596194,42,hard,2,2
33,0.0-5.0-0.6,0,10043,<p style='font-size: 25px;'>A: Is the problem hard? <br>B: The problem is hard. <br>Would you conclude that the problem is not unsolvable? </p>,181952,24,hard,2,2
33,0.0-5.0-0.22,0,5832,<p style='font-size: 25px;'>A: Is the problem hard? <br>B: The problem is hard. <br>Would you conclude that the problem is not unsolvable? </p>,293135,40,hard,2,2
6,0.0-5.0-0.1,0,6572,<p style='font-size: 25px;'>A: Is the problem unsolvable? <br>B: The problem is hard. <br>Would you conclude that the problem is not unsolvable? </p>,154319,19,hard,2,3
6,0.0-5.0-0.19,0,3054,<p style='font-size: 25px;'>A: Is the problem unsolvable? <br>B: The problem is hard. <br>Would you conclude that the problem is not unsolvable? </p>,263193,37,hard,2,3
7,0.0-5.0-0.0,0,6401,<p style='font-size: 25px;'>A: Is the problem unsolvable? <br>B: The problem is hard. <br>Would you conclude that the problem is not unsolvable? </p>,54151,18,hard,2,3
7,0.0-5.0-0.21,0,1888,<p style='font-size: 25px;'>A: Is the problem unsolvable? <br>B: The problem is hard. <br>Would you conclude that the problem is not unsolvable? </p>,102382,39,hard,2,3
8,0.0-5.0-0.4,0,4902,<p style='font-size: 25px;'>A: Is the problem unsolvable? <br>B: The problem is hard. <br>Would you conclude that the problem is not unsolvable? </p>,186278,22,hard,2,3
8,0.0-5.0-0.15,0,4523,<p style='font-size: 25px;'>A: Is the problem unsolvable? <br>B: The problem is hard. <br>Would you conclude that the problem is not unsolvable? </p>,235488,33,hard,2,3
11,0.0-5.0-0.12,0,5607,<p style='font-size: 25px;'>A: Is the problem unsolvable? <br>B: The problem is hard. <br>Would you conclude that the problem is not unsolvable? </p>,232493,30,hard,2,3
11,0.0-5.0-0.13,0,4335,<p style='font-size: 25px;'>A: Is the problem unsolvable? <br>B: The problem is hard. <br>Would you conclude that the problem is not unsolvable? </p>,236831,31,hard,2,3
12,0.0-5.0-0.7,0,5464,<p style='font-size: 25px;'>A: Is the problem unsolvable? <br>B: The problem is hard. <br>Would you conclude that the problem is not unsolvable? </p>,184179,25,hard,2,3
12,0.0-5.0-0.14,0,6450,<p style='font-size: 25px;'>A: Is the problem unsolvable? <br>B: The problem is hard. <br>Would you conclude that the problem is not unsolvable? </p>,227683,32,hard,2,3
13,0.0-5.0-0.6,0,3731,<p style='font-size: 25px;'>A: Is the problem unsolvable? <br>B: The problem is hard. <br>Would you conclude that the problem is not unsolvable? </p>,223091,24,hard,2,3
13,0.0-5.0-0.16,0,6883,<p style='font-size: 25px;'>A: Is the problem unsolvable? <br>B: The problem is hard. <br>Would you conclude that the problem is not unsolvable? </p>,283074,34,hard,2,3
14,0.0-5.0-0.5,0,6744,<p style='font-size: 25px;'>A: Is the problem unsolvable? <br>B: The problem is hard. <br>Would you conclude that the problem is not unsolvable? </p>,218566,23,hard,2,3
14,0.0-5.0-0.20,0,15479,<p style='font-size: 25px;'>A: Is the problem unsolvable? <br>B: The problem is hard. <br>Would you conclude that the problem is not unsolvable? </p>,347654,38,hard,2,3
15,0.0-5.0-0.3,0,5295,<p style='font-size: 25px;'>A: Is the problem unsolvable? <br>B: The problem is hard. <br>Would you conclude that the problem is not unsolvable? </p>,93914,21,hard,2,3
15,0.0-5.0-0.24,0,3166,<p style='font-size: 25px;'>A: Is the problem unsolvable? <br>B: The problem is hard. <br>Would you conclude that the problem is not unsolvable? </p>,162455,42,hard,2,3
16,0.0-5.0-0.5,0,5439,<p style='font-size: 25px;'>A: Is the problem unsolvable? <br>B: The problem is hard. <br>Would you conclude that the problem is not unsolvable? </p>,130579,23,hard,2,3
16,0.0-5.0-0.16,0,3640,<p style='font-size: 25px;'>A: Is the problem unsolvable? <br>B: The problem is hard. <br>Would you conclude that the problem is not unsolvable? </p>,162699,34,hard,2,3
17,0.0-5.0-0.11,0,4365,<p style='font-size: 25px;'>A: Is the problem unsolvable? <br>B: The problem is hard. <br>Would you conclude that the problem is not unsolvable? </p>,189673,29,hard,2,3
17,0.0-5.0-0.21,0,5145,<p style='font-size: 25px;'>A: Is the problem unsolvable? <br>B: The problem is hard. <br>Would you conclude that the problem is not unsolvable? </p>,228267,39,hard,2,3
18,0.0-5.0-0.9,0,3390,<p style='font-size: 25px;'>A: Is the problem unsolvable? <br>B: The problem is hard. <br>Would you conclude that the problem is not unsolvable? </p>,210499,27,hard,2,3
18,0.0-5.0-0.19,0,1610,<p style='font-size: 25px;'>A: Is the problem unsolvable? <br>B: The problem is hard. <br>Would you conclude that the problem is not unsolvable? </p>,261455,37,hard,2,3
20,0.0-5.0-0.3,0,5366,<p style='font-size: 25px;'>A: Is the problem unsolvable? <br>B: The problem is hard. <br>Would you conclude that the problem is not unsolvable? </p>,74112,21,hard,2,3
20,0.0-5.0-0.16,0,3718,<p style='font-size: 25px;'>A: Is the problem unsolvable? <br>B: The problem is hard. <br>Would you conclude that the problem is not unsolvable? </p>,109903,34,hard,2,3
21,0.0-5.0-0.6,0,5448,<p style='font-size: 25px;'>A: Is the problem unsolvable? <br>B: The problem is hard. <br>Would you conclude that the problem is not unsolvable? </p>,113588,24,hard,2,3
21,0.0-5.0-0.24,0,2168,<p style='font-size: 25px;'>A: Is the problem unsolvable? <br>B: The problem is hard. <br>Would you conclude that the problem is not unsolvable? </p>,178332,42,hard,2,3
22,0.0-5.0-0.2,1,12103,<p style='font-size: 25px;'>A: Is the problem unsolvable? <br>B: The problem is hard. <br>Would you conclude that the problem is not unsolvable? </p>,148560,20,hard,2,3
22,0.0-5.0-0.20,1,22716,<p style='font-size: 25px;'>A: Is the problem unsolvable? <br>B: The problem is hard. <br>Would you conclude that the problem is not unsolvable? </p>,259191,38,hard,2,3
23,0.0-5.0-0.9,1,4074,<p style='font-size: 25px;'>A: Is the problem unsolvable? <br>B: The problem is hard. <br>Would you conclude that the problem is not unsolvable? </p>,227776,27,hard,2,3
23,0.0-5.0-0.14,1,2621,<p style='font-size: 25px;'>A: Is the problem unsolvable? <br>B: The problem is hard. <br>Would you conclude that the problem is not unsolvable? </p>,239032,32,hard,2,3
24,0.0-5.0-0.4,0,7766,<p style='font-size: 25px;'>A: Is the problem unsolvable? <br>B: The problem is hard. <br>Would you conclude that the problem is not unsolvable? </p>,207497,22,hard,2,3
