workerid,internal_node_id,response,rt,stimulus,time_elapsed,trial_index,scales,within_group,exp_group
35,0.0-4.0-0.0,0,5947,<p style='font-size: 25px;'>Robin sometimes stays up late. <br>Would you conclude that Robin doesn't always stay up late?</p>,28558,4,always,1,1
35,0.0-4.0-0.9,0,3805,<p style='font-size: 25px;'>Robin sometimes stays up late. <br>Would you conclude that Robin doesn't always stay up late?</p>,59562,13,always,1,1
36,0.0-4.0-0.4,0,6560,<p style='font-size: 25px;'>Robin sometimes stays up late. <br>Would you conclude that Robin doesn't always stay up late?</p>,64937,8,always,1,1
36,0.0-4.0-0.13,0,5925,<p style='font-size: 25px;'>Robin sometimes stays up late. <br>Would you conclude that Robin doesn't always stay up late?</p>,103824,17,always,1,1
37,0.0-4.0-0.2,0,7738,<p style='font-size: 25px;'>Robin sometimes stays up late. <br>Would you conclude that Robin doesn't always stay up late?</p>,31882,6,always,1,1
37,0.0-4.0-0.9,0,8937,<p style='font-size: 25px;'>Robin sometimes stays up late. <br>Would you conclude that Robin doesn't always stay up late?</p>,73828,13,always,1,1
38,0.0-4.0-0.1,0,5815,<p style='font-size: 25px;'>Robin sometimes stays up late. <br>Would you conclude that Robin doesn't always stay up late?</p>,43878,5,always,1,1
38,0.0-4.0-0.10,0,2444,<p style='font-size: 25px;'>Robin sometimes stays up late. <br>Would you conclude that Robin doesn't always stay up late?</p>,68600,14,always,1,1
39,0.0-4.0-0.4,0,10073,<p style='font-size: 25px;'>Robin sometimes stays up late. <br>Would you conclude that Robin doesn't always stay up late?</p>,60953,8,always,1,1
39,0.0-4.0-0.9,0,3420,<p style='font-size: 25px;'>Robin sometimes stays up late. <br>Would you conclude that Robin doesn't always stay up late?</p>,79184,13,always,1,1
40,0.0-4.0-0.6,0,4190,<p style='font-size: 25px;'>Robin sometimes stays up late. <br>Would you conclude that Robin doesn't always stay up late?</p>,184237,10,always,1,1
40,0.0-4.0-0.10,0,2854,<p style='font-size: 25px;'>Robin sometimes stays up late. <br>Would you conclude that Robin doesn't always stay up late?</p>,203337,14,always,1,1
41,0.0-4.0-0.0,0,6677,<p style='font-size: 25px;'>Robin sometimes stays up late. <br>Would you conclude that Robin doesn't always stay up late?</p>,52340,4,always,1,1
41,0.0-4.0-0.12,0,4473,<p style='font-size: 25px;'>Robin sometimes stays up late. <br>Would you conclude that Robin doesn't always stay up late?</p>,123550,16,always,1,1
42,0.0-4.0-0.3,0,6892,<p style='font-size: 25px;'>Robin sometimes stays up late. <br>Would you conclude that Robin doesn't always stay up late?</p>,64724,7,always,1,1
42,0.0-4.0-0.11,0,5470,<p style='font-size: 25px;'>Robin sometimes stays up late. <br>Would you conclude that Robin doesn't always stay up late?</p>,97225,15,always,1,1
43,0.0-4.0-0.5,1,1081,<p style='font-size: 25px;'>Robin sometimes stays up late. <br>Would you conclude that Robin doesn't always stay up late?</p>,39665,9,always,1,1
43,0.0-4.0-0.7,0,1001,<p style='font-size: 25px;'>Robin sometimes stays up late. <br>Would you conclude that Robin doesn't always stay up late?</p>,41351,11,always,1,1
44,0.0-4.0-0.2,0,8999,<p style='font-size: 25px;'>Robin sometimes stays up late. <br>Would you conclude that Robin doesn't always stay up late?</p>,105379,6,always,1,1
44,0.0-4.0-0.9,0,10639,<p style='font-size: 25px;'>Robin sometimes stays up late. <br>Would you conclude that Robin doesn't always stay up late?</p>,159179,13,always,1,1
45,0.0-4.0-0.0,0,7004,<p style='font-size: 25px;'>Robin sometimes stays up late. <br>Would you conclude that Robin doesn't always stay up late?</p>,33966,4,always,1,1
45,0.0-4.0-0.13,0,4751,<p style='font-size: 25px;'>Robin sometimes stays up late. <br>Would you conclude that Robin doesn't always stay up late?</p>,82824,17,always,1,1
46,0.0-4.0-0.1,0,8151,<p style='font-size: 25px;'>Robin sometimes stays up late. <br>Would you conclude that Robin doesn't always stay up late?</p>,222302,5,always,1,1
46,0.0-4.0-0.10,0,10039,<p style='font-size: 25px;'>Robin sometimes stays up late. <br>Would you conclude that Robin doesn't always stay up late?</p>,292919,14,always,1,1
47,0.0-4.0-0.0,0,7579,<p style='font-size: 25px;'>Robin sometimes stays up late. <br>Would you conclude that Robin doesn't always stay up late?</p>,25260,4,always,1,1
47,0.0-4.0-0.11,0,3735,<p style='font-size: 25px;'>Robin sometimes stays up late. <br>Would you conclude that Robin doesn't always stay up late?</p>,65740,15,always,1,1
48,0.0-4.0-0.3,0,6332,<p style='font-size: 25px;'>Robin sometimes stays up late. <br>Would you conclude that Robin doesn't always stay up late?</p>,37389,7,always,1,1
48,0.0-4.0-0.11,0,2553,<p style='font-size: 25px;'>Robin sometimes stays up late. <br>Would you conclude that Robin doesn't always stay up late?</p>,62118,15,always,1,1
49,0.0-4.0-0.0,0,7430,<p style='font-size: 25px;'>Robin sometimes stays up late. <br>Would you conclude that Robin doesn't always stay up late?</p>,59793,4,always,1,1
49,0.0-4.0-0.11,0,5148,<p style='font-size: 25px;'>Robin sometimes stays up late. <br>Would you conclude that Robin doesn't always stay up late?</p>,109908,15,always,1,1
50,0.0-4.0-0.6,0,5055,<p style='font-size: 25px;'>Robin sometimes stays up late. <br>Would you conclude that Robin doesn't always stay up late?</p>,133670,10,always,1,1
50,0.0-4.0-0.11,0,3407,<p style='font-size: 25px;'>Robin sometimes stays up late. <br>Would you conclude that Robin doesn't always stay up late?</p>,148376,15,always,1,1
52,0.0-4.0-0.6,0,6969,<p style='font-size: 25px;'>Robin sometimes stays up late. <br>Would you conclude that Robin doesn't always stay up late?</p>,129371,10,always,1,1
52,0.0-4.0-0.10,0,6361,<p style='font-size: 25px;'>Robin sometimes stays up late. <br>Would you conclude that Robin doesn't always stay up late?</p>,161406,14,always,1,1
53,0.0-4.0-0.1,0,5487,<p style='font-size: 25px;'>Robin sometimes stays up late. <br>Would you conclude that Robin doesn't always stay up late?</p>,26031,5,always,1,1
53,0.0-4.0-0.11,0,7466,<p style='font-size: 25px;'>Robin sometimes stays up late. <br>Would you conclude that Robin doesn't always stay up late?</p>,78167,15,always,1,1
54,0.0-4.0-0.0,0,4861,<p style='font-size: 25px;'>Robin sometimes stays up late. <br>Would you conclude that Robin doesn't always stay up late?</p>,38384,4,always,1,1
54,0.0-4.0-0.13,0,5174,<p style='font-size: 25px;'>Robin sometimes stays up late. <br>Would you conclude that Robin doesn't always stay up late?</p>,77125,17,always,1,1
55,0.0-4.0-0.5,0,14962,<p style='font-size: 25px;'>Robin sometimes stays up late. <br>Would you conclude that Robin doesn't always stay up late?</p>,90967,9,always,1,1
55,0.0-4.0-0.11,0,9368,<p style='font-size: 25px;'>Robin sometimes stays up late. <br>Would you conclude that Robin doesn't always stay up late?</p>,140933,15,always,1,1
56,0.0-4.0-0.3,0,5214,<p style='font-size: 25px;'>Robin sometimes stays up late. <br>Would you conclude that Robin doesn't always stay up late?</p>,34779,7,always,1,1
56,0.0-4.0-0.10,0,4438,<p style='font-size: 25px;'>Robin sometimes stays up late. <br>Would you conclude that Robin doesn't always stay up late?</p>,69483,14,always,1,1
57,0.0-4.0-0.3,0,9415,<p style='font-size: 25px;'>Robin sometimes stays up late. <br>Would you conclude that Robin doesn't always stay up late?</p>,280511,7,always,1,1
57,0.0-4.0-0.9,0,6854,<p style='font-size: 25px;'>Robin sometimes stays up late. <br>Would you conclude that Robin doesn't always stay up late?</p>,383487,13,always,1,1
58,0.0-4.0-0.5,0,9173,<p style='font-size: 25px;'>Robin sometimes stays up late. <br>Would you conclude that Robin doesn't always stay up late?</p>,103614,9,always,1,1
58,0.0-4.0-0.10,0,5193,<p style='font-size: 25px;'>Robin sometimes stays up late. <br>Would you conclude that Robin doesn't always stay up late?</p>,127886,14,always,1,1
59,0.0-4.0-0.6,0,6406,<p style='font-size: 25px;'>Robin sometimes stays up late. <br>Would you conclude that Robin doesn't always stay up late?</p>,139110,10,always,1,1
59,0.0-4.0-0.12,0,8771,<p style='font-size: 25px;'>Robin sometimes stays up late. <br>Would you conclude that Robin doesn't always stay up late?</p>,191351,16,always,1,1
35,0.0-5.0-0.12,1,4758,"<p style='font-size: 25px;'>Robin's Dad advises Robin to go to bed early.<br>One evening, after dinner, Dad asks Robin: &quot;Do you always stay up late?&quot;<br>Robin replies: &quot;I sometimes stay up late.&quot;<br>Would you conclude that Robin does not always stay up late?</p>",161580,30,always,2,3
35,0.0-5.0-0.20,1,3610,"<p style='font-size: 25px;'>Robin's Dad advises Robin to go to bed early.<br>One evening, after dinner, Dad asks Robin: &quot;Do you always stay up late?&quot;<br>Robin replies: &quot;I sometimes stay up late.&quot;<br>Would you conclude that Robin does not always stay up late?</p>",194160,38,always,2,3
36,0.0-5.0-0.3,0,4685,"<p style='font-size: 25px;'>Robin's Dad advises Robin to go to bed early.<br>One evening, after dinner, Dad asks Robin: &quot;Do you always stay up late?&quot;<br>Robin replies: &quot;I sometimes stay up late.&quot;<br>Would you conclude that Robin does not always stay up late?</p>",142809,21,always,2,3
36,0.0-5.0-0.17,0,4939,"<p style='font-size: 25px;'>Robin's Dad advises Robin to go to bed early.<br>One evening, after dinner, Dad asks Robin: &quot;Do you always stay up late?&quot;<br>Robin replies: &quot;I sometimes stay up late.&quot;<br>Would you conclude that Robin does not always stay up late?</p>",208555,35,always,2,3
37,0.0-5.0-0.7,0,9390,"<p style='font-size: 25px;'>Robin's Dad advises Robin to go to bed early.<br>One evening, after dinner, Dad asks Robin: &quot;Do you always stay up late?&quot;<br>Robin replies: &quot;I sometimes stay up late.&quot;<br>Would you conclude that Robin does not always stay up late?</p>",205405,25,always,2,3
37,0.0-5.0-0.15,0,4152,"<p style='font-size: 25px;'>Robin's Dad advises Robin to go to bed early.<br>One evening, after dinner, Dad asks Robin: &quot;Do you always stay up late?&quot;<br>Robin replies: &quot;I sometimes stay up late.&quot;<br>Would you conclude that Robin does not always stay up late?</p>",275704,33,always,2,3
38,0.0-5.0-0.3,0,4991,"<p style='font-size: 25px;'>Robin's Dad advises Robin to go to bed early.<br>One evening, after dinner, Dad asks Robin: &quot;Do you always stay up late?&quot;<br>Robin replies: &quot;I sometimes stay up late.&quot;<br>Would you conclude that Robin does not always stay up late?</p>",99559,21,always,2,3
38,0.0-5.0-0.17,0,1580,"<p style='font-size: 25px;'>Robin's Dad advises Robin to go to bed early.<br>One evening, after dinner, Dad asks Robin: &quot;Do you always stay up late?&quot;<br>Robin replies: &quot;I sometimes stay up late.&quot;<br>Would you conclude that Robin does not always stay up late?</p>",134921,35,always,2,3
39,0.0-5.0-0.7,0,3068,"<p style='font-size: 25px;'>Robin's Dad advises Robin to go to bed early.<br>One evening, after dinner, Dad asks Robin: &quot;Do you always stay up late?&quot;<br>Robin replies: &quot;I sometimes stay up late.&quot;<br>Would you conclude that Robin does not always stay up late?</p>",156278,25,always,2,3
39,0.0-5.0-0.22,0,4845,"<p style='font-size: 25px;'>Robin's Dad advises Robin to go to bed early.<br>One evening, after dinner, Dad asks Robin: &quot;Do you always stay up late?&quot;<br>Robin replies: &quot;I sometimes stay up late.&quot;<br>Would you conclude that Robin does not always stay up late?</p>",225522,40,always,2,3
40,0.0-5.0-0.1,0,8658,"<p style='font-size: 25px;'>Robin's Dad advises Robin to go to bed early.<br>One evening, after dinner, Dad asks Robin: &quot;Do you always stay up late?&quot;<br>Robin replies: &quot;I sometimes stay up late.&quot;<br>Would you conclude that Robin does not always stay up late?</p>",224112,19,always,2,3
40,0.0-5.0-0.23,0,5150,"<p style='font-size: 25px;'>Robin's Dad advises Robin to go to bed early.<br>One evening, after dinner, Dad asks Robin: &quot;Do you always stay up late?&quot;<br>Robin replies: &quot;I sometimes stay up late.&quot;<br>Would you conclude that Robin does not always stay up late?</p>",354601,41,always,2,3
41,0.0-5.0-0.8,0,6023,"<p style='font-size: 25px;'>Robin's Dad advises Robin to go to bed early.<br>One evening, after dinner, Dad asks Robin: &quot;Do you always stay up late?&quot;<br>Robin replies: &quot;I sometimes stay up late.&quot;<br>Would you conclude that Robin does not always stay up late?</p>",209260,26,always,2,3
41,0.0-5.0-0.16,0,4335,"<p style='font-size: 25px;'>Robin's Dad advises Robin to go to bed early.<br>One evening, after dinner, Dad asks Robin: &quot;Do you always stay up late?&quot;<br>Robin replies: &quot;I sometimes stay up late.&quot;<br>Would you conclude that Robin does not always stay up late?</p>",276848,34,always,2,3
42,0.0-5.0-0.0,0,8878,"<p style='font-size: 25px;'>Robin's Dad advises Robin to go to bed early.<br>One evening, after dinner, Dad asks Robin: &quot;Do you always stay up late?&quot;<br>Robin replies: &quot;I sometimes stay up late.&quot;<br>Would you conclude that Robin does not always stay up late?</p>",119318,18,always,2,3
42,0.0-5.0-0.16,0,3863,"<p style='font-size: 25px;'>Robin's Dad advises Robin to go to bed early.<br>One evening, after dinner, Dad asks Robin: &quot;Do you always stay up late?&quot;<br>Robin replies: &quot;I sometimes stay up late.&quot;<br>Would you conclude that Robin does not always stay up late?</p>",268790,34,always,2,3
43,0.0-5.0-0.0,0,1515,"<p style='font-size: 25px;'>Robin's Dad advises Robin to go to bed early.<br>One evening, after dinner, Dad asks Robin: &quot;Do you always stay up late?&quot;<br>Robin replies: &quot;I sometimes stay up late.&quot;<br>Would you conclude that Robin does not always stay up late?</p>",48411,18,always,2,3
43,0.0-5.0-0.21,0,592,"<p style='font-size: 25px;'>Robin's Dad advises Robin to go to bed early.<br>One evening, after dinner, Dad asks Robin: &quot;Do you always stay up late?&quot;<br>Robin replies: &quot;I sometimes stay up late.&quot;<br>Would you conclude that Robin does not always stay up late?</p>",76608,39,always,2,3
44,0.0-5.0-0.0,0,24023,"<p style='font-size: 25px;'>Robin's Dad advises Robin to go to bed early.<br>One evening, after dinner, Dad asks Robin: &quot;Do you always stay up late?&quot;<br>Robin replies: &quot;I sometimes stay up late.&quot;<br>Would you conclude that Robin does not always stay up late?</p>",212818,18,always,2,3
44,0.0-5.0-0.24,0,12168,"<p style='font-size: 25px;'>Robin's Dad advises Robin to go to bed early.<br>One evening, after dinner, Dad asks Robin: &quot;Do you always stay up late?&quot;<br>Robin replies: &quot;I sometimes stay up late.&quot;<br>Would you conclude that Robin does not always stay up late?</p>",649225,42,always,2,3
45,0.0-5.0-0.6,0,3895,"<p style='font-size: 25px;'>Robin's Dad advises Robin to go to bed early.<br>One evening, after dinner, Dad asks Robin: &quot;Do you always stay up late?&quot;<br>Robin replies: &quot;I sometimes stay up late.&quot;<br>Would you conclude that Robin does not always stay up late?</p>",159233,24,always,2,3
45,0.0-5.0-0.22,0,3872,"<p style='font-size: 25px;'>Robin's Dad advises Robin to go to bed early.<br>One evening, after dinner, Dad asks Robin: &quot;Do you always stay up late?&quot;<br>Robin replies: &quot;I sometimes stay up late.&quot;<br>Would you conclude that Robin does not always stay up late?</p>",250922,40,always,2,3
46,0.0-5.0-0.11,0,5224,"<p style='font-size: 25px;'>Robin's Dad advises Robin to go to bed early.<br>One evening, after dinner, Dad asks Robin: &quot;Do you always stay up late?&quot;<br>Robin replies: &quot;I sometimes stay up late.&quot;<br>Would you conclude that Robin does not always stay up late?</p>",415588,29,always,2,3
46,0.0-5.0-0.17,0,5663,"<p style='font-size: 25px;'>Robin's Dad advises Robin to go to bed early.<br>One evening, after dinner, Dad asks Robin: &quot;Do you always stay up late?&quot;<br>Robin replies: &quot;I sometimes stay up late.&quot;<br>Would you conclude that Robin does not always stay up late?</p>",442851,35,always,2,3
47,0.0-5.0-0.2,0,4415,"<p style='font-size: 25px;'>Robin's Dad advises Robin to go to bed early.<br>One evening, after dinner, Dad asks Robin: &quot;Do you always stay up late?&quot;<br>Robin replies: &quot;I sometimes stay up late.&quot;<br>Would you conclude that Robin does not always stay up late?</p>",96492,20,always,2,3
47,0.0-5.0-0.24,0,2703,"<p style='font-size: 25px;'>Robin's Dad advises Robin to go to bed early.<br>One evening, after dinner, Dad asks Robin: &quot;Do you always stay up late?&quot;<br>Robin replies: &quot;I sometimes stay up late.&quot;<br>Would you conclude that Robin does not always stay up late?</p>",191980,42,always,2,3
48,0.0-5.0-0.3,0,3175,"<p style='font-size: 25px;'>Robin's Dad advises Robin to go to bed early.<br>One evening, after dinner, Dad asks Robin: &quot;Do you always stay up late?&quot;<br>Robin replies: &quot;I sometimes stay up late.&quot;<br>Would you conclude that Robin does not always stay up late?</p>",89451,21,always,2,3
48,0.0-5.0-0.24,0,2367,"<p style='font-size: 25px;'>Robin's Dad advises Robin to go to bed early.<br>One evening, after dinner, Dad asks Robin: &quot;Do you always stay up late?&quot;<br>Robin replies: &quot;I sometimes stay up late.&quot;<br>Would you conclude that Robin does not always stay up late?</p>",249082,42,always,2,3
49,0.0-5.0-0.0,0,21432,"<p style='font-size: 25px;'>Robin's Dad advises Robin to go to bed early.<br>One evening, after dinner, Dad asks Robin: &quot;Do you always stay up late?&quot;<br>Robin replies: &quot;I sometimes stay up late.&quot;<br>Would you conclude that Robin does not always stay up late?</p>",137259,18,always,2,3
49,0.0-5.0-0.25,0,7617,"<p style='font-size: 25px;'>Robin's Dad advises Robin to go to bed early.<br>One evening, after dinner, Dad asks Robin: &quot;Do you always stay up late?&quot;<br>Robin replies: &quot;I sometimes stay up late.&quot;<br>Would you conclude that Robin does not always stay up late?</p>",366076,43,always,2,3
50,0.0-5.0-0.9,0,5607,"<p style='font-size: 25px;'>Robin's Dad advises Robin to go to bed early.<br>One evening, after dinner, Dad asks Robin: &quot;Do you always stay up late?&quot;<br>Robin replies: &quot;I sometimes stay up late.&quot;<br>Would you conclude that Robin does not always stay up late?</p>",234429,27,always,2,3
50,0.0-5.0-0.20,0,3888,"<p style='font-size: 25px;'>Robin's Dad advises Robin to go to bed early.<br>One evening, after dinner, Dad asks Robin: &quot;Do you always stay up late?&quot;<br>Robin replies: &quot;I sometimes stay up late.&quot;<br>Would you conclude that Robin does not always stay up late?</p>",298055,38,always,2,3
52,0.0-5.0-0.2,0,11655,"<p style='font-size: 25px;'>Robin's Dad advises Robin to go to bed early.<br>One evening, after dinner, Dad asks Robin: &quot;Do you always stay up late?&quot;<br>Robin replies: &quot;I sometimes stay up late.&quot;<br>Would you conclude that Robin does not always stay up late?</p>",217871,20,always,2,3
52,0.0-5.0-0.17,0,5617,"<p style='font-size: 25px;'>Robin's Dad advises Robin to go to bed early.<br>One evening, after dinner, Dad asks Robin: &quot;Do you always stay up late?&quot;<br>Robin replies: &quot;I sometimes stay up late.&quot;<br>Would you conclude that Robin does not always stay up late?</p>",497603,35,always,2,3
53,0.0-5.0-0.10,0,5673,"<p style='font-size: 25px;'>Robin's Dad advises Robin to go to bed early.<br>One evening, after dinner, Dad asks Robin: &quot;Do you always stay up late?&quot;<br>Robin replies: &quot;I sometimes stay up late.&quot;<br>Would you conclude that Robin does not always stay up late?</p>",199157,28,always,2,3
53,0.0-5.0-0.20,0,2854,"<p style='font-size: 25px;'>Robin's Dad advises Robin to go to bed early.<br>One evening, after dinner, Dad asks Robin: &quot;Do you always stay up late?&quot;<br>Robin replies: &quot;I sometimes stay up late.&quot;<br>Would you conclude that Robin does not always stay up late?</p>",228831,38,always,2,3
54,0.0-5.0-0.7,0,3716,"<p style='font-size: 25px;'>Robin's Dad advises Robin to go to bed early.<br>One evening, after dinner, Dad asks Robin: &quot;Do you always stay up late?&quot;<br>Robin replies: &quot;I sometimes stay up late.&quot;<br>Would you conclude that Robin does not always stay up late?</p>",109464,25,always,2,3
54,0.0-5.0-0.22,0,3298,"<p style='font-size: 25px;'>Robin's Dad advises Robin to go to bed early.<br>One evening, after dinner, Dad asks Robin: &quot;Do you always stay up late?&quot;<br>Robin replies: &quot;I sometimes stay up late.&quot;<br>Would you conclude that Robin does not always stay up late?</p>",153290,40,always,2,3
55,0.0-5.0-0.4,0,7304,"<p style='font-size: 25px;'>Robin's Dad advises Robin to go to bed early.<br>One evening, after dinner, Dad asks Robin: &quot;Do you always stay up late?&quot;<br>Robin replies: &quot;I sometimes stay up late.&quot;<br>Would you conclude that Robin does not always stay up late?</p>",225315,22,always,2,3
55,0.0-5.0-0.14,0,5167,"<p style='font-size: 25px;'>Robin's Dad advises Robin to go to bed early.<br>One evening, after dinner, Dad asks Robin: &quot;Do you always stay up late?&quot;<br>Robin replies: &quot;I sometimes stay up late.&quot;<br>Would you conclude that Robin does not always stay up late?</p>",313493,32,always,2,3
56,0.0-5.0-0.10,0,2886,"<p style='font-size: 25px;'>Robin's Dad advises Robin to go to bed early.<br>One evening, after dinner, Dad asks Robin: &quot;Do you always stay up late?&quot;<br>Robin replies: &quot;I sometimes stay up late.&quot;<br>Would you conclude that Robin does not always stay up late?</p>",135842,28,always,2,3
56,0.0-5.0-0.18,0,1198,"<p style='font-size: 25px;'>Robin's Dad advises Robin to go to bed early.<br>One evening, after dinner, Dad asks Robin: &quot;Do you always stay up late?&quot;<br>Robin replies: &quot;I sometimes stay up late.&quot;<br>Would you conclude that Robin does not always stay up late?</p>",150027,36,always,2,3
57,0.0-5.0-0.2,1,7278,"<p style='font-size: 25px;'>Robin's Dad advises Robin to go to bed early.<br>One evening, after dinner, Dad asks Robin: &quot;Do you always stay up late?&quot;<br>Robin replies: &quot;I sometimes stay up late.&quot;<br>Would you conclude that Robin does not always stay up late?</p>",541766,20,always,2,3
57,0.0-5.0-0.20,0,4215,"<p style='font-size: 25px;'>Robin's Dad advises Robin to go to bed early.<br>One evening, after dinner, Dad asks Robin: &quot;Do you always stay up late?&quot;<br>Robin replies: &quot;I sometimes stay up late.&quot;<br>Would you conclude that Robin does not always stay up late?</p>",695598,38,always,2,3
58,0.0-5.0-0.8,0,8113,"<p style='font-size: 25px;'>Robin's Dad advises Robin to go to bed early.<br>One evening, after dinner, Dad asks Robin: &quot;Do you always stay up late?&quot;<br>Robin replies: &quot;I sometimes stay up late.&quot;<br>Would you conclude that Robin does not always stay up late?</p>",280751,26,always,2,3
58,0.0-5.0-0.13,0,7904,"<p style='font-size: 25px;'>Robin's Dad advises Robin to go to bed early.<br>One evening, after dinner, Dad asks Robin: &quot;Do you always stay up late?&quot;<br>Robin replies: &quot;I sometimes stay up late.&quot;<br>Would you conclude that Robin does not always stay up late?</p>",335307,31,always,2,3
59,0.0-5.0-0.11,0,9329,"<p style='font-size: 25px;'>Robin's Dad advises Robin to go to bed early.<br>One evening, after dinner, Dad asks Robin: &quot;Do you always stay up late?&quot;<br>Robin replies: &quot;I sometimes stay up late.&quot;<br>Would you conclude that Robin does not always stay up late?</p>",380833,29,always,2,3
59,0.0-5.0-0.20,0,6864,"<p style='font-size: 25px;'>Robin's Dad advises Robin to go to bed early.<br>One evening, after dinner, Dad asks Robin: &quot;Do you always stay up late?&quot;<br>Robin replies: &quot;I sometimes stay up late.&quot;<br>Would you conclude that Robin does not always stay up late?</p>",469040,38,always,2,3
35,0.0-5.0-0.4,0,7522,"<p style='font-size: 25px;'>Robin's Dad advises Robin to go to bed early.<br>One evening, after dinner, Dad asks Robin: &quot;Do you sometimes stay up late?&quot;<br>Robin replies: &quot;I sometimes stay up late.&quot;<br>Would you conclude that Robin does not always stay up late?</p>",114492,22,always,2,2
35,0.0-5.0-0.25,1,3593,"<p style='font-size: 25px;'>Robin's Dad advises Robin to go to bed early.<br>One evening, after dinner, Dad asks Robin: &quot;Do you sometimes stay up late?&quot;<br>Robin replies: &quot;I sometimes stay up late.&quot;<br>Would you conclude that Robin does not always stay up late?</p>",210875,43,always,2,2
36,0.0-5.0-0.5,0,4405,"<p style='font-size: 25px;'>Robin's Dad advises Robin to go to bed early.<br>One evening, after dinner, Dad asks Robin: &quot;Do you sometimes stay up late?&quot;<br>Robin replies: &quot;I sometimes stay up late.&quot;<br>Would you conclude that Robin does not always stay up late?</p>",153146,23,always,2,2
36,0.0-5.0-0.20,0,7079,"<p style='font-size: 25px;'>Robin's Dad advises Robin to go to bed early.<br>One evening, after dinner, Dad asks Robin: &quot;Do you sometimes stay up late?&quot;<br>Robin replies: &quot;I sometimes stay up late.&quot;<br>Would you conclude that Robin does not always stay up late?</p>",221842,38,always,2,2
37,0.0-5.0-0.6,0,9360,"<p style='font-size: 25px;'>Robin's Dad advises Robin to go to bed early.<br>One evening, after dinner, Dad asks Robin: &quot;Do you sometimes stay up late?&quot;<br>Robin replies: &quot;I sometimes stay up late.&quot;<br>Would you conclude that Robin does not always stay up late?</p>",196015,24,always,2,2
37,0.0-5.0-0.14,0,5232,"<p style='font-size: 25px;'>Robin's Dad advises Robin to go to bed early.<br>One evening, after dinner, Dad asks Robin: &quot;Do you sometimes stay up late?&quot;<br>Robin replies: &quot;I sometimes stay up late.&quot;<br>Would you conclude that Robin does not always stay up late?</p>",271550,32,always,2,2
38,0.0-5.0-0.10,0,1941,"<p style='font-size: 25px;'>Robin's Dad advises Robin to go to bed early.<br>One evening, after dinner, Dad asks Robin: &quot;Do you sometimes stay up late?&quot;<br>Robin replies: &quot;I sometimes stay up late.&quot;<br>Would you conclude that Robin does not always stay up late?</p>",120551,28,always,2,2
38,0.0-5.0-0.21,0,1306,"<p style='font-size: 25px;'>Robin's Dad advises Robin to go to bed early.<br>One evening, after dinner, Dad asks Robin: &quot;Do you sometimes stay up late?&quot;<br>Robin replies: &quot;I sometimes stay up late.&quot;<br>Would you conclude that Robin does not always stay up late?</p>",143096,39,always,2,2
39,0.0-5.0-0.1,0,6739,"<p style='font-size: 25px;'>Robin's Dad advises Robin to go to bed early.<br>One evening, after dinner, Dad asks Robin: &quot;Do you sometimes stay up late?&quot;<br>Robin replies: &quot;I sometimes stay up late.&quot;<br>Would you conclude that Robin does not always stay up late?</p>",115450,19,always,2,2
39,0.0-5.0-0.18,0,13710,"<p style='font-size: 25px;'>Robin's Dad advises Robin to go to bed early.<br>One evening, after dinner, Dad asks Robin: &quot;Do you sometimes stay up late?&quot;<br>Robin replies: &quot;I sometimes stay up late.&quot;<br>Would you conclude that Robin does not always stay up late?</p>",204906,36,always,2,2
40,0.0-5.0-0.8,0,6202,"<p style='font-size: 25px;'>Robin's Dad advises Robin to go to bed early.<br>One evening, after dinner, Dad asks Robin: &quot;Do you sometimes stay up late?&quot;<br>Robin replies: &quot;I sometimes stay up late.&quot;<br>Would you conclude that Robin does not always stay up late?</p>",288541,26,always,2,2
40,0.0-5.0-0.16,0,5126,"<p style='font-size: 25px;'>Robin's Dad advises Robin to go to bed early.<br>One evening, after dinner, Dad asks Robin: &quot;Do you sometimes stay up late?&quot;<br>Robin replies: &quot;I sometimes stay up late.&quot;<br>Would you conclude that Robin does not always stay up late?</p>",332196,34,always,2,2
41,0.0-5.0-0.9,0,7161,"<p style='font-size: 25px;'>Robin's Dad advises Robin to go to bed early.<br>One evening, after dinner, Dad asks Robin: &quot;Do you sometimes stay up late?&quot;<br>Robin replies: &quot;I sometimes stay up late.&quot;<br>Would you conclude that Robin does not always stay up late?</p>",216423,27,always,2,2
41,0.0-5.0-0.24,0,3719,"<p style='font-size: 25px;'>Robin's Dad advises Robin to go to bed early.<br>One evening, after dinner, Dad asks Robin: &quot;Do you sometimes stay up late?&quot;<br>Robin replies: &quot;I sometimes stay up late.&quot;<br>Would you conclude that Robin does not always stay up late?</p>",318814,42,always,2,2
42,0.0-5.0-0.1,0,10014,"<p style='font-size: 25px;'>Robin's Dad advises Robin to go to bed early.<br>One evening, after dinner, Dad asks Robin: &quot;Do you sometimes stay up late?&quot;<br>Robin replies: &quot;I sometimes stay up late.&quot;<br>Would you conclude that Robin does not always stay up late?</p>",129333,19,always,2,2
42,0.0-5.0-0.13,0,15219,"<p style='font-size: 25px;'>Robin's Dad advises Robin to go to bed early.<br>One evening, after dinner, Dad asks Robin: &quot;Do you sometimes stay up late?&quot;<br>Robin replies: &quot;I sometimes stay up late.&quot;<br>Would you conclude that Robin does not always stay up late?</p>",247837,31,always,2,2
43,0.0-5.0-0.12,0,2580,"<p style='font-size: 25px;'>Robin's Dad advises Robin to go to bed early.<br>One evening, after dinner, Dad asks Robin: &quot;Do you sometimes stay up late?&quot;<br>Robin replies: &quot;I sometimes stay up late.&quot;<br>Would you conclude that Robin does not always stay up late?</p>",66768,30,always,2,2
43,0.0-5.0-0.13,1,1548,"<p style='font-size: 25px;'>Robin's Dad advises Robin to go to bed early.<br>One evening, after dinner, Dad asks Robin: &quot;Do you sometimes stay up late?&quot;<br>Robin replies: &quot;I sometimes stay up late.&quot;<br>Would you conclude that Robin does not always stay up late?</p>",68317,31,always,2,2
44,0.0-5.0-0.8,0,14207,"<p style='font-size: 25px;'>Robin's Dad advises Robin to go to bed early.<br>One evening, after dinner, Dad asks Robin: &quot;Do you sometimes stay up late?&quot;<br>Robin replies: &quot;I sometimes stay up late.&quot;<br>Would you conclude that Robin does not always stay up late?</p>",370642,26,always,2,2
44,0.0-5.0-0.21,0,18007,"<p style='font-size: 25px;'>Robin's Dad advises Robin to go to bed early.<br>One evening, after dinner, Dad asks Robin: &quot;Do you sometimes stay up late?&quot;<br>Robin replies: &quot;I sometimes stay up late.&quot;<br>Would you conclude that Robin does not always stay up late?</p>",615328,39,always,2,2
45,0.0-5.0-0.2,0,8664,"<p style='font-size: 25px;'>Robin's Dad advises Robin to go to bed early.<br>One evening, after dinner, Dad asks Robin: &quot;Do you sometimes stay up late?&quot;<br>Robin replies: &quot;I sometimes stay up late.&quot;<br>Would you conclude that Robin does not always stay up late?</p>",128560,20,always,2,2
45,0.0-5.0-0.25,0,6801,"<p style='font-size: 25px;'>Robin's Dad advises Robin to go to bed early.<br>One evening, after dinner, Dad asks Robin: &quot;Do you sometimes stay up late?&quot;<br>Robin replies: &quot;I sometimes stay up late.&quot;<br>Would you conclude that Robin does not always stay up late?</p>",274826,43,always,2,2
46,0.0-5.0-0.9,0,4499,"<p style='font-size: 25px;'>Robin's Dad advises Robin to go to bed early.<br>One evening, after dinner, Dad asks Robin: &quot;Do you sometimes stay up late?&quot;<br>Robin replies: &quot;I sometimes stay up late.&quot;<br>Would you conclude that Robin does not always stay up late?</p>",399508,27,always,2,2
46,0.0-5.0-0.18,0,4500,"<p style='font-size: 25px;'>Robin's Dad advises Robin to go to bed early.<br>One evening, after dinner, Dad asks Robin: &quot;Do you sometimes stay up late?&quot;<br>Robin replies: &quot;I sometimes stay up late.&quot;<br>Would you conclude that Robin does not always stay up late?</p>",447351,36,always,2,2
47,0.0-5.0-0.3,0,4327,"<p style='font-size: 25px;'>Robin's Dad advises Robin to go to bed early.<br>One evening, after dinner, Dad asks Robin: &quot;Do you sometimes stay up late?&quot;<br>Robin replies: &quot;I sometimes stay up late.&quot;<br>Would you conclude that Robin does not always stay up late?</p>",100820,21,always,2,2
47,0.0-5.0-0.22,0,3456,"<p style='font-size: 25px;'>Robin's Dad advises Robin to go to bed early.<br>One evening, after dinner, Dad asks Robin: &quot;Do you sometimes stay up late?&quot;<br>Robin replies: &quot;I sometimes stay up late.&quot;<br>Would you conclude that Robin does not always stay up late?</p>",187220,40,always,2,2
48,0.0-5.0-0.10,0,4788,"<p style='font-size: 25px;'>Robin's Dad advises Robin to go to bed early.<br>One evening, after dinner, Dad asks Robin: &quot;Do you sometimes stay up late?&quot;<br>Robin replies: &quot;I sometimes stay up late.&quot;<br>Would you conclude that Robin does not always stay up late?</p>",215886,28,always,2,2
48,0.0-5.0-0.13,0,1903,"<p style='font-size: 25px;'>Robin's Dad advises Robin to go to bed early.<br>One evening, after dinner, Dad asks Robin: &quot;Do you sometimes stay up late?&quot;<br>Robin replies: &quot;I sometimes stay up late.&quot;<br>Would you conclude that Robin does not always stay up late?</p>",221525,31,always,2,2
49,0.0-5.0-0.12,0,5450,"<p style='font-size: 25px;'>Robin's Dad advises Robin to go to bed early.<br>One evening, after dinner, Dad asks Robin: &quot;Do you sometimes stay up late?&quot;<br>Robin replies: &quot;I sometimes stay up late.&quot;<br>Would you conclude that Robin does not always stay up late?</p>",260559,30,always,2,2
49,0.0-5.0-0.14,0,7298,"<p style='font-size: 25px;'>Robin's Dad advises Robin to go to bed early.<br>One evening, after dinner, Dad asks Robin: &quot;Do you sometimes stay up late?&quot;<br>Robin replies: &quot;I sometimes stay up late.&quot;<br>Would you conclude that Robin does not always stay up late?</p>",284025,32,always,2,2
50,0.0-5.0-0.8,0,9153,"<p style='font-size: 25px;'>Robin's Dad advises Robin to go to bed early.<br>One evening, after dinner, Dad asks Robin: &quot;Do you sometimes stay up late?&quot;<br>Robin replies: &quot;I sometimes stay up late.&quot;<br>Would you conclude that Robin does not always stay up late?</p>",228821,26,always,2,2
50,0.0-5.0-0.21,0,4119,"<p style='font-size: 25px;'>Robin's Dad advises Robin to go to bed early.<br>One evening, after dinner, Dad asks Robin: &quot;Do you sometimes stay up late?&quot;<br>Robin replies: &quot;I sometimes stay up late.&quot;<br>Would you conclude that Robin does not always stay up late?</p>",302291,39,always,2,2
52,0.0-5.0-0.8,0,29722,"<p style='font-size: 25px;'>Robin's Dad advises Robin to go to bed early.<br>One evening, after dinner, Dad asks Robin: &quot;Do you sometimes stay up late?&quot;<br>Robin replies: &quot;I sometimes stay up late.&quot;<br>Would you conclude that Robin does not always stay up late?</p>",351797,26,always,2,2
52,0.0-5.0-0.13,0,7876,"<p style='font-size: 25px;'>Robin's Dad advises Robin to go to bed early.<br>One evening, after dinner, Dad asks Robin: &quot;Do you sometimes stay up late?&quot;<br>Robin replies: &quot;I sometimes stay up late.&quot;<br>Would you conclude that Robin does not always stay up late?</p>",396014,31,always,2,2
53,0.0-5.0-0.4,0,4637,"<p style='font-size: 25px;'>Robin's Dad advises Robin to go to bed early.<br>One evening, after dinner, Dad asks Robin: &quot;Do you sometimes stay up late?&quot;<br>Robin replies: &quot;I sometimes stay up late.&quot;<br>Would you conclude that Robin does not always stay up late?</p>",172557,22,always,2,2
53,0.0-5.0-0.24,0,5043,"<p style='font-size: 25px;'>Robin's Dad advises Robin to go to bed early.<br>One evening, after dinner, Dad asks Robin: &quot;Do you sometimes stay up late?&quot;<br>Robin replies: &quot;I sometimes stay up late.&quot;<br>Would you conclude that Robin does not always stay up late?</p>",241855,42,always,2,2
54,0.0-5.0-0.10,0,2613,"<p style='font-size: 25px;'>Robin's Dad advises Robin to go to bed early.<br>One evening, after dinner, Dad asks Robin: &quot;Do you sometimes stay up late?&quot;<br>Robin replies: &quot;I sometimes stay up late.&quot;<br>Would you conclude that Robin does not always stay up late?</p>",118268,28,always,2,2
54,0.0-5.0-0.21,0,4381,"<p style='font-size: 25px;'>Robin's Dad advises Robin to go to bed early.<br>One evening, after dinner, Dad asks Robin: &quot;Do you sometimes stay up late?&quot;<br>Robin replies: &quot;I sometimes stay up late.&quot;<br>Would you conclude that Robin does not always stay up late?</p>",149991,39,always,2,2
55,0.0-5.0-0.6,0,4635,"<p style='font-size: 25px;'>Robin's Dad advises Robin to go to bed early.<br>One evening, after dinner, Dad asks Robin: &quot;Do you sometimes stay up late?&quot;<br>Robin replies: &quot;I sometimes stay up late.&quot;<br>Would you conclude that Robin does not always stay up late?</p>",243128,24,always,2,2
55,0.0-5.0-0.17,0,7854,"<p style='font-size: 25px;'>Robin's Dad advises Robin to go to bed early.<br>One evening, after dinner, Dad asks Robin: &quot;Do you sometimes stay up late?&quot;<br>Robin replies: &quot;I sometimes stay up late.&quot;<br>Would you conclude that Robin does not always stay up late?</p>",342279,35,always,2,2
56,0.0-5.0-0.4,0,2942,"<p style='font-size: 25px;'>Robin's Dad advises Robin to go to bed early.<br>One evening, after dinner, Dad asks Robin: &quot;Do you sometimes stay up late?&quot;<br>Robin replies: &quot;I sometimes stay up late.&quot;<br>Would you conclude that Robin does not always stay up late?</p>",117083,22,always,2,2
56,0.0-5.0-0.14,0,1286,"<p style='font-size: 25px;'>Robin's Dad advises Robin to go to bed early.<br>One evening, after dinner, Dad asks Robin: &quot;Do you sometimes stay up late?&quot;<br>Robin replies: &quot;I sometimes stay up late.&quot;<br>Would you conclude that Robin does not always stay up late?</p>",144299,32,always,2,2
57,0.0-5.0-0.1,1,64463,"<p style='font-size: 25px;'>Robin's Dad advises Robin to go to bed early.<br>One evening, after dinner, Dad asks Robin: &quot;Do you sometimes stay up late?&quot;<br>Robin replies: &quot;I sometimes stay up late.&quot;<br>Would you conclude that Robin does not always stay up late?</p>",534487,19,always,2,2
57,0.0-5.0-0.17,1,4007,"<p style='font-size: 25px;'>Robin's Dad advises Robin to go to bed early.<br>One evening, after dinner, Dad asks Robin: &quot;Do you sometimes stay up late?&quot;<br>Robin replies: &quot;I sometimes stay up late.&quot;<br>Would you conclude that Robin does not always stay up late?</p>",681438,35,always,2,2
58,0.0-5.0-0.6,0,11577,"<p style='font-size: 25px;'>Robin's Dad advises Robin to go to bed early.<br>One evening, after dinner, Dad asks Robin: &quot;Do you sometimes stay up late?&quot;<br>Robin replies: &quot;I sometimes stay up late.&quot;<br>Would you conclude that Robin does not always stay up late?</p>",256043,24,always,2,2
58,0.0-5.0-0.22,0,5628,"<p style='font-size: 25px;'>Robin's Dad advises Robin to go to bed early.<br>One evening, after dinner, Dad asks Robin: &quot;Do you sometimes stay up late?&quot;<br>Robin replies: &quot;I sometimes stay up late.&quot;<br>Would you conclude that Robin does not always stay up late?</p>",416174,40,always,2,2
59,0.0-5.0-0.5,0,12392,"<p style='font-size: 25px;'>Robin's Dad advises Robin to go to bed early.<br>One evening, after dinner, Dad asks Robin: &quot;Do you sometimes stay up late?&quot;<br>Robin replies: &quot;I sometimes stay up late.&quot;<br>Would you conclude that Robin does not always stay up late?</p>",304548,23,always,2,2
59,0.0-5.0-0.18,0,4799,"<p style='font-size: 25px;'>Robin's Dad advises Robin to go to bed early.<br>One evening, after dinner, Dad asks Robin: &quot;Do you sometimes stay up late?&quot;<br>Robin replies: &quot;I sometimes stay up late.&quot;<br>Would you conclude that Robin does not always stay up late?</p>",443447,36,always,2,2
35,0.0-4.0-0.2,0,3446,<p style='font-size: 25px;'>Rowan is attractive. <br>Would you conclude that Rowan is not stunning? </p>,35484,6,attractive,1,1
35,0.0-4.0-0.11,0,2709,<p style='font-size: 25px;'>Rowan is attractive. <br>Would you conclude that Rowan is not stunning? </p>,65568,15,attractive,1,1
36,0.0-4.0-0.5,1,7435,<p style='font-size: 25px;'>Rowan is attractive. <br>Would you conclude that Rowan is not stunning? </p>,72373,9,attractive,1,1
36,0.0-4.0-0.7,1,2274,<p style='font-size: 25px;'>Rowan is attractive. <br>Would you conclude that Rowan is not stunning? </p>,76603,11,attractive,1,1
37,0.0-4.0-0.0,1,5716,<p style='font-size: 25px;'>Rowan is attractive. <br>Would you conclude that Rowan is not stunning? </p>,22523,4,attractive,1,1
37,0.0-4.0-0.10,1,2391,<p style='font-size: 25px;'>Rowan is attractive. <br>Would you conclude that Rowan is not stunning? </p>,76222,14,attractive,1,1
38,0.0-4.0-0.4,0,2221,<p style='font-size: 25px;'>Rowan is attractive. <br>Would you conclude that Rowan is not stunning? </p>,54275,8,attractive,1,1
38,0.0-4.0-0.7,1,2841,<p style='font-size: 25px;'>Rowan is attractive. <br>Would you conclude that Rowan is not stunning? </p>,61709,11,attractive,1,1
39,0.0-4.0-0.6,1,5146,<p style='font-size: 25px;'>Rowan is attractive. <br>Would you conclude that Rowan is not stunning? </p>,71422,10,attractive,1,1
39,0.0-4.0-0.11,1,2995,<p style='font-size: 25px;'>Rowan is attractive. <br>Would you conclude that Rowan is not stunning? </p>,83864,15,attractive,1,1
40,0.0-4.0-0.1,1,10305,<p style='font-size: 25px;'>Rowan is attractive. <br>Would you conclude that Rowan is not stunning? </p>,165661,5,attractive,1,1
40,0.0-4.0-0.8,1,6914,<p style='font-size: 25px;'>Rowan is attractive. <br>Would you conclude that Rowan is not stunning? </p>,197076,12,attractive,1,1
41,0.0-4.0-0.5,0,7602,<p style='font-size: 25px;'>Rowan is attractive. <br>Would you conclude that Rowan is not stunning? </p>,89722,9,attractive,1,1
41,0.0-4.0-0.8,0,5070,<p style='font-size: 25px;'>Rowan is attractive. <br>Would you conclude that Rowan is not stunning? </p>,110268,12,attractive,1,1
42,0.0-4.0-0.0,1,10173,<p style='font-size: 25px;'>Rowan is attractive. <br>Would you conclude that Rowan is not stunning? </p>,41001,4,attractive,1,1
42,0.0-4.0-0.12,0,7894,<p style='font-size: 25px;'>Rowan is attractive. <br>Would you conclude that Rowan is not stunning? </p>,105121,16,attractive,1,1
43,0.0-4.0-0.0,0,4199,<p style='font-size: 25px;'>Rowan is attractive. <br>Would you conclude that Rowan is not stunning? </p>,21333,4,attractive,1,1
43,0.0-4.0-0.11,1,1262,<p style='font-size: 25px;'>Rowan is attractive. <br>Would you conclude that Rowan is not stunning? </p>,44330,15,attractive,1,1
44,0.0-4.0-0.3,1,8671,<p style='font-size: 25px;'>Rowan is attractive. <br>Would you conclude that Rowan is not stunning? </p>,114051,7,attractive,1,1
44,0.0-4.0-0.7,1,11431,<p style='font-size: 25px;'>Rowan is attractive. <br>Would you conclude that Rowan is not stunning? </p>,141179,11,attractive,1,1
45,0.0-4.0-0.1,1,5191,<p style='font-size: 25px;'>Rowan is attractive. <br>Would you conclude that Rowan is not stunning? </p>,39159,5,attractive,1,1
45,0.0-4.0-0.7,1,2607,<p style='font-size: 25px;'>Rowan is attractive. <br>Would you conclude that Rowan is not stunning? </p>,55087,11,attractive,1,1
46,0.0-4.0-0.4,1,17029,<p style='font-size: 25px;'>Rowan is attractive. <br>Would you conclude that Rowan is not stunning? </p>,244626,8,attractive,1,1
46,0.0-4.0-0.7,1,4933,<p style='font-size: 25px;'>Rowan is attractive. <br>Would you conclude that Rowan is not stunning? </p>,276123,11,attractive,1,1
47,0.0-4.0-0.6,1,4520,<p style='font-size: 25px;'>Rowan is attractive. <br>Would you conclude that Rowan is not stunning? </p>,46364,10,attractive,1,1
47,0.0-4.0-0.9,1,3591,<p style='font-size: 25px;'>Rowan is attractive. <br>Would you conclude that Rowan is not stunning? </p>,60532,13,attractive,1,1
48,0.0-4.0-0.6,1,4003,<p style='font-size: 25px;'>Rowan is attractive. <br>Would you conclude that Rowan is not stunning? </p>,49631,10,attractive,1,1
48,0.0-4.0-0.8,1,3281,<p style='font-size: 25px;'>Rowan is attractive. <br>Would you conclude that Rowan is not stunning? </p>,54527,12,attractive,1,1
49,0.0-4.0-0.1,0,6797,<p style='font-size: 25px;'>Rowan is attractive. <br>Would you conclude that Rowan is not stunning? </p>,66592,5,attractive,1,1
49,0.0-4.0-0.13,0,3682,<p style='font-size: 25px;'>Rowan is attractive. <br>Would you conclude that Rowan is not stunning? </p>,115825,17,attractive,1,1
50,0.0-4.0-0.3,0,4263,<p style='font-size: 25px;'>Rowan is attractive. <br>Would you conclude that Rowan is not stunning? </p>,119322,7,attractive,1,1
50,0.0-4.0-0.7,0,2824,<p style='font-size: 25px;'>Rowan is attractive. <br>Would you conclude that Rowan is not stunning? </p>,136495,11,attractive,1,1
52,0.0-4.0-0.2,1,4929,<p style='font-size: 25px;'>Rowan is attractive. <br>Would you conclude that Rowan is not stunning? </p>,47471,6,attractive,1,1
52,0.0-4.0-0.13,1,3772,<p style='font-size: 25px;'>Rowan is attractive. <br>Would you conclude that Rowan is not stunning? </p>,183279,17,attractive,1,1
53,0.0-4.0-0.0,1,4144,<p style='font-size: 25px;'>Rowan is attractive. <br>Would you conclude that Rowan is not stunning? </p>,20543,4,attractive,1,1
53,0.0-4.0-0.10,1,15251,<p style='font-size: 25px;'>Rowan is attractive. <br>Would you conclude that Rowan is not stunning? </p>,70700,14,attractive,1,1
54,0.0-4.0-0.3,1,3058,<p style='font-size: 25px;'>Rowan is attractive. <br>Would you conclude that Rowan is not stunning? </p>,47932,7,attractive,1,1
54,0.0-4.0-0.11,1,2515,<p style='font-size: 25px;'>Rowan is attractive. <br>Would you conclude that Rowan is not stunning? </p>,70877,15,attractive,1,1
55,0.0-4.0-0.4,1,6247,<p style='font-size: 25px;'>Rowan is attractive. <br>Would you conclude that Rowan is not stunning? </p>,76005,8,attractive,1,1
55,0.0-4.0-0.9,1,4432,<p style='font-size: 25px;'>Rowan is attractive. <br>Would you conclude that Rowan is not stunning? </p>,115417,13,attractive,1,1
56,0.0-4.0-0.4,0,4669,<p style='font-size: 25px;'>Rowan is attractive. <br>Would you conclude that Rowan is not stunning? </p>,39451,8,attractive,1,1
56,0.0-4.0-0.13,0,1446,<p style='font-size: 25px;'>Rowan is attractive. <br>Would you conclude that Rowan is not stunning? </p>,76923,17,attractive,1,1
57,0.0-4.0-0.6,1,5502,<p style='font-size: 25px;'>Rowan is attractive. <br>Would you conclude that Rowan is not stunning? </p>,361879,10,attractive,1,1
57,0.0-4.0-0.10,0,24247,<p style='font-size: 25px;'>Rowan is attractive. <br>Would you conclude that Rowan is not stunning? </p>,407735,14,attractive,1,1
58,0.0-4.0-0.3,0,6994,<p style='font-size: 25px;'>Rowan is attractive. <br>Would you conclude that Rowan is not stunning? </p>,88256,7,attractive,1,1
58,0.0-4.0-0.8,0,2701,<p style='font-size: 25px;'>Rowan is attractive. <br>Would you conclude that Rowan is not stunning? </p>,119830,12,attractive,1,1
59,0.0-4.0-0.0,1,11341,<p style='font-size: 25px;'>Rowan is attractive. <br>Would you conclude that Rowan is not stunning? </p>,99196,4,attractive,1,1
59,0.0-4.0-0.9,1,8717,<p style='font-size: 25px;'>Rowan is attractive. <br>Would you conclude that Rowan is not stunning? </p>,162665,13,attractive,1,1
35,0.0-5.0-0.0,0,7710,"<p style='font-size: 25px;'>At a class reunion, Rowan is absent. <br>When people talk about each other, someone asks Rowan's best friend Jane: &quot;Is Rowan attractive?&quot;<br>Jane replies: &quot;Rowan is attractive.&quot;<br>Would you conclude that Rowan is not stunning?</p>",78534,18,attractive,2,2
35,0.0-5.0-0.15,0,4467,"<p style='font-size: 25px;'>At a class reunion, Rowan is absent. <br>When people talk about each other, someone asks Rowan's best friend Jane: &quot;Is Rowan attractive?&quot;<br>Jane replies: &quot;Rowan is attractive.&quot;<br>Would you conclude that Rowan is not stunning?</p>",173130,33,attractive,2,2
36,0.0-5.0-0.7,1,5968,"<p style='font-size: 25px;'>At a class reunion, Rowan is absent. <br>When people talk about each other, someone asks Rowan's best friend Jane: &quot;Is Rowan attractive?&quot;<br>Jane replies: &quot;Rowan is attractive.&quot;<br>Would you conclude that Rowan is not stunning?</p>",160672,25,attractive,2,2
36,0.0-5.0-0.19,1,2067,"<p style='font-size: 25px;'>At a class reunion, Rowan is absent. <br>When people talk about each other, someone asks Rowan's best friend Jane: &quot;Is Rowan attractive?&quot;<br>Jane replies: &quot;Rowan is attractive.&quot;<br>Would you conclude that Rowan is not stunning?</p>",214762,37,attractive,2,2
37,0.0-5.0-0.8,0,16179,"<p style='font-size: 25px;'>At a class reunion, Rowan is absent. <br>When people talk about each other, someone asks Rowan's best friend Jane: &quot;Is Rowan attractive?&quot;<br>Jane replies: &quot;Rowan is attractive.&quot;<br>Would you conclude that Rowan is not stunning?</p>",221584,26,attractive,2,2
37,0.0-5.0-0.23,0,6265,"<p style='font-size: 25px;'>At a class reunion, Rowan is absent. <br>When people talk about each other, someone asks Rowan's best friend Jane: &quot;Is Rowan attractive?&quot;<br>Jane replies: &quot;Rowan is attractive.&quot;<br>Would you conclude that Rowan is not stunning?</p>",317836,41,attractive,2,2
38,0.0-5.0-0.1,1,6610,"<p style='font-size: 25px;'>At a class reunion, Rowan is absent. <br>When people talk about each other, someone asks Rowan's best friend Jane: &quot;Is Rowan attractive?&quot;<br>Jane replies: &quot;Rowan is attractive.&quot;<br>Would you conclude that Rowan is not stunning?</p>",82393,19,attractive,2,2
38,0.0-5.0-0.19,1,2580,"<p style='font-size: 25px;'>At a class reunion, Rowan is absent. <br>When people talk about each other, someone asks Rowan's best friend Jane: &quot;Is Rowan attractive?&quot;<br>Jane replies: &quot;Rowan is attractive.&quot;<br>Would you conclude that Rowan is not stunning?</p>",139857,37,attractive,2,2
39,0.0-5.0-0.11,1,2153,"<p style='font-size: 25px;'>At a class reunion, Rowan is absent. <br>When people talk about each other, someone asks Rowan's best friend Jane: &quot;Is Rowan attractive?&quot;<br>Jane replies: &quot;Rowan is attractive.&quot;<br>Would you conclude that Rowan is not stunning?</p>",171613,29,attractive,2,2
39,0.0-5.0-0.15,1,4093,"<p style='font-size: 25px;'>At a class reunion, Rowan is absent. <br>When people talk about each other, someone asks Rowan's best friend Jane: &quot;Is Rowan attractive?&quot;<br>Jane replies: &quot;Rowan is attractive.&quot;<br>Would you conclude that Rowan is not stunning?</p>",186714,33,attractive,2,2
40,0.0-5.0-0.2,0,10690,"<p style='font-size: 25px;'>At a class reunion, Rowan is absent. <br>When people talk about each other, someone asks Rowan's best friend Jane: &quot;Is Rowan attractive?&quot;<br>Jane replies: &quot;Rowan is attractive.&quot;<br>Would you conclude that Rowan is not stunning?</p>",234804,20,attractive,2,2
40,0.0-5.0-0.15,1,6747,"<p style='font-size: 25px;'>At a class reunion, Rowan is absent. <br>When people talk about each other, someone asks Rowan's best friend Jane: &quot;Is Rowan attractive?&quot;<br>Jane replies: &quot;Rowan is attractive.&quot;<br>Would you conclude that Rowan is not stunning?</p>",327068,33,attractive,2,2
41,0.0-5.0-0.11,0,5776,"<p style='font-size: 25px;'>At a class reunion, Rowan is absent. <br>When people talk about each other, someone asks Rowan's best friend Jane: &quot;Is Rowan attractive?&quot;<br>Jane replies: &quot;Rowan is attractive.&quot;<br>Would you conclude that Rowan is not stunning?</p>",236229,29,attractive,2,2
41,0.0-5.0-0.17,0,6288,"<p style='font-size: 25px;'>At a class reunion, Rowan is absent. <br>When people talk about each other, someone asks Rowan's best friend Jane: &quot;Is Rowan attractive?&quot;<br>Jane replies: &quot;Rowan is attractive.&quot;<br>Would you conclude that Rowan is not stunning?</p>",283140,35,attractive,2,2
42,0.0-5.0-0.10,0,7685,"<p style='font-size: 25px;'>At a class reunion, Rowan is absent. <br>When people talk about each other, someone asks Rowan's best friend Jane: &quot;Is Rowan attractive?&quot;<br>Jane replies: &quot;Rowan is attractive.&quot;<br>Would you conclude that Rowan is not stunning?</p>",225791,28,attractive,2,2
42,0.0-5.0-0.14,0,9545,"<p style='font-size: 25px;'>At a class reunion, Rowan is absent. <br>When people talk about each other, someone asks Rowan's best friend Jane: &quot;Is Rowan attractive?&quot;<br>Jane replies: &quot;Rowan is attractive.&quot;<br>Would you conclude that Rowan is not stunning?</p>",257384,32,attractive,2,2
43,0.0-5.0-0.11,0,1413,"<p style='font-size: 25px;'>At a class reunion, Rowan is absent. <br>When people talk about each other, someone asks Rowan's best friend Jane: &quot;Is Rowan attractive?&quot;<br>Jane replies: &quot;Rowan is attractive.&quot;<br>Would you conclude that Rowan is not stunning?</p>",64186,29,attractive,2,2
43,0.0-5.0-0.20,0,1135,"<p style='font-size: 25px;'>At a class reunion, Rowan is absent. <br>When people talk about each other, someone asks Rowan's best friend Jane: &quot;Is Rowan attractive?&quot;<br>Jane replies: &quot;Rowan is attractive.&quot;<br>Would you conclude that Rowan is not stunning?</p>",76013,38,attractive,2,2
44,0.0-5.0-0.9,1,29191,"<p style='font-size: 25px;'>At a class reunion, Rowan is absent. <br>When people talk about each other, someone asks Rowan's best friend Jane: &quot;Is Rowan attractive?&quot;<br>Jane replies: &quot;Rowan is attractive.&quot;<br>Would you conclude that Rowan is not stunning?</p>",399833,27,attractive,2,2
44,0.0-5.0-0.19,0,23967,"<p style='font-size: 25px;'>At a class reunion, Rowan is absent. <br>When people talk about each other, someone asks Rowan's best friend Jane: &quot;Is Rowan attractive?&quot;<br>Jane replies: &quot;Rowan is attractive.&quot;<br>Would you conclude that Rowan is not stunning?</p>",586944,37,attractive,2,2
45,0.0-5.0-0.7,1,8384,"<p style='font-size: 25px;'>At a class reunion, Rowan is absent. <br>When people talk about each other, someone asks Rowan's best friend Jane: &quot;Is Rowan attractive?&quot;<br>Jane replies: &quot;Rowan is attractive.&quot;<br>Would you conclude that Rowan is not stunning?</p>",167617,25,attractive,2,2
45,0.0-5.0-0.15,1,3288,"<p style='font-size: 25px;'>At a class reunion, Rowan is absent. <br>When people talk about each other, someone asks Rowan's best friend Jane: &quot;Is Rowan attractive?&quot;<br>Jane replies: &quot;Rowan is attractive.&quot;<br>Would you conclude that Rowan is not stunning?</p>",210225,33,attractive,2,2
46,0.0-5.0-0.5,1,9969,"<p style='font-size: 25px;'>At a class reunion, Rowan is absent. <br>When people talk about each other, someone asks Rowan's best friend Jane: &quot;Is Rowan attractive?&quot;<br>Jane replies: &quot;Rowan is attractive.&quot;<br>Would you conclude that Rowan is not stunning?</p>",359225,23,attractive,2,2
46,0.0-5.0-0.13,1,1818,"<p style='font-size: 25px;'>At a class reunion, Rowan is absent. <br>When people talk about each other, someone asks Rowan's best friend Jane: &quot;Is Rowan attractive?&quot;<br>Jane replies: &quot;Rowan is attractive.&quot;<br>Would you conclude that Rowan is not stunning?</p>",423133,31,attractive,2,2
47,0.0-5.0-0.4,0,22120,"<p style='font-size: 25px;'>At a class reunion, Rowan is absent. <br>When people talk about each other, someone asks Rowan's best friend Jane: &quot;Is Rowan attractive?&quot;<br>Jane replies: &quot;Rowan is attractive.&quot;<br>Would you conclude that Rowan is not stunning?</p>",122940,22,attractive,2,2
47,0.0-5.0-0.18,0,3104,"<p style='font-size: 25px;'>At a class reunion, Rowan is absent. <br>When people talk about each other, someone asks Rowan's best friend Jane: &quot;Is Rowan attractive?&quot;<br>Jane replies: &quot;Rowan is attractive.&quot;<br>Would you conclude that Rowan is not stunning?</p>",177956,36,attractive,2,2
48,0.0-5.0-0.9,0,2586,"<p style='font-size: 25px;'>At a class reunion, Rowan is absent. <br>When people talk about each other, someone asks Rowan's best friend Jane: &quot;Is Rowan attractive?&quot;<br>Jane replies: &quot;Rowan is attractive.&quot;<br>Would you conclude that Rowan is not stunning?</p>",211097,27,attractive,2,2
48,0.0-5.0-0.18,0,4135,"<p style='font-size: 25px;'>At a class reunion, Rowan is absent. <br>When people talk about each other, someone asks Rowan's best friend Jane: &quot;Is Rowan attractive?&quot;<br>Jane replies: &quot;Rowan is attractive.&quot;<br>Would you conclude that Rowan is not stunning?</p>",235275,36,attractive,2,2
49,0.0-5.0-0.5,1,15216,"<p style='font-size: 25px;'>At a class reunion, Rowan is absent. <br>When people talk about each other, someone asks Rowan's best friend Jane: &quot;Is Rowan attractive?&quot;<br>Jane replies: &quot;Rowan is attractive.&quot;<br>Would you conclude that Rowan is not stunning?</p>",198275,23,attractive,2,2
49,0.0-5.0-0.17,1,9182,"<p style='font-size: 25px;'>At a class reunion, Rowan is absent. <br>When people talk about each other, someone asks Rowan's best friend Jane: &quot;Is Rowan attractive?&quot;<br>Jane replies: &quot;Rowan is attractive.&quot;<br>Would you conclude that Rowan is not stunning?</p>",309859,35,attractive,2,2
50,0.0-5.0-0.4,0,3847,"<p style='font-size: 25px;'>At a class reunion, Rowan is absent. <br>When people talk about each other, someone asks Rowan's best friend Jane: &quot;Is Rowan attractive?&quot;<br>Jane replies: &quot;Rowan is attractive.&quot;<br>Would you conclude that Rowan is not stunning?</p>",200185,22,attractive,2,2
50,0.0-5.0-0.13,0,4015,"<p style='font-size: 25px;'>At a class reunion, Rowan is absent. <br>When people talk about each other, someone asks Rowan's best friend Jane: &quot;Is Rowan attractive?&quot;<br>Jane replies: &quot;Rowan is attractive.&quot;<br>Would you conclude that Rowan is not stunning?</p>",266731,31,attractive,2,2
52,0.0-5.0-0.10,1,11413,"<p style='font-size: 25px;'>At a class reunion, Rowan is absent. <br>When people talk about each other, someone asks Rowan's best friend Jane: &quot;Is Rowan attractive?&quot;<br>Jane replies: &quot;Rowan is attractive.&quot;<br>Would you conclude that Rowan is not stunning?</p>",366416,28,attractive,2,2
52,0.0-5.0-0.20,1,6831,"<p style='font-size: 25px;'>At a class reunion, Rowan is absent. <br>When people talk about each other, someone asks Rowan's best friend Jane: &quot;Is Rowan attractive?&quot;<br>Jane replies: &quot;Rowan is attractive.&quot;<br>Would you conclude that Rowan is not stunning?</p>",517085,38,attractive,2,2
53,0.0-5.0-0.2,1,6986,"<p style='font-size: 25px;'>At a class reunion, Rowan is absent. <br>When people talk about each other, someone asks Rowan's best friend Jane: &quot;Is Rowan attractive?&quot;<br>Jane replies: &quot;Rowan is attractive.&quot;<br>Would you conclude that Rowan is not stunning?</p>",163385,20,attractive,2,2
53,0.0-5.0-0.21,1,3507,"<p style='font-size: 25px;'>At a class reunion, Rowan is absent. <br>When people talk about each other, someone asks Rowan's best friend Jane: &quot;Is Rowan attractive?&quot;<br>Jane replies: &quot;Rowan is attractive.&quot;<br>Would you conclude that Rowan is not stunning?</p>",232340,39,attractive,2,2
54,0.0-5.0-0.6,1,3041,"<p style='font-size: 25px;'>At a class reunion, Rowan is absent. <br>When people talk about each other, someone asks Rowan's best friend Jane: &quot;Is Rowan attractive?&quot;<br>Jane replies: &quot;Rowan is attractive.&quot;<br>Would you conclude that Rowan is not stunning?</p>",105747,24,attractive,2,2
54,0.0-5.0-0.17,1,1409,"<p style='font-size: 25px;'>At a class reunion, Rowan is absent. <br>When people talk about each other, someone asks Rowan's best friend Jane: &quot;Is Rowan attractive?&quot;<br>Jane replies: &quot;Rowan is attractive.&quot;<br>Would you conclude that Rowan is not stunning?</p>",138518,35,attractive,2,2
55,0.0-5.0-0.5,1,13178,"<p style='font-size: 25px;'>At a class reunion, Rowan is absent. <br>When people talk about each other, someone asks Rowan's best friend Jane: &quot;Is Rowan attractive?&quot;<br>Jane replies: &quot;Rowan is attractive.&quot;<br>Would you conclude that Rowan is not stunning?</p>",238493,23,attractive,2,2
55,0.0-5.0-0.23,1,4853,"<p style='font-size: 25px;'>At a class reunion, Rowan is absent. <br>When people talk about each other, someone asks Rowan's best friend Jane: &quot;Is Rowan attractive?&quot;<br>Jane replies: &quot;Rowan is attractive.&quot;<br>Would you conclude that Rowan is not stunning?</p>",367643,41,attractive,2,2
56,0.0-5.0-0.9,0,1734,"<p style='font-size: 25px;'>At a class reunion, Rowan is absent. <br>When people talk about each other, someone asks Rowan's best friend Jane: &quot;Is Rowan attractive?&quot;<br>Jane replies: &quot;Rowan is attractive.&quot;<br>Would you conclude that Rowan is not stunning?</p>",132955,27,attractive,2,2
56,0.0-5.0-0.15,0,902,"<p style='font-size: 25px;'>At a class reunion, Rowan is absent. <br>When people talk about each other, someone asks Rowan's best friend Jane: &quot;Is Rowan attractive?&quot;<br>Jane replies: &quot;Rowan is attractive.&quot;<br>Would you conclude that Rowan is not stunning?</p>",145203,33,attractive,2,2
57,0.0-5.0-0.9,0,18063,"<p style='font-size: 25px;'>At a class reunion, Rowan is absent. <br>When people talk about each other, someone asks Rowan's best friend Jane: &quot;Is Rowan attractive?&quot;<br>Jane replies: &quot;Rowan is attractive.&quot;<br>Would you conclude that Rowan is not stunning?</p>",628174,27,attractive,2,2
57,0.0-5.0-0.14,0,9606,"<p style='font-size: 25px;'>At a class reunion, Rowan is absent. <br>When people talk about each other, someone asks Rowan's best friend Jane: &quot;Is Rowan attractive?&quot;<br>Jane replies: &quot;Rowan is attractive.&quot;<br>Would you conclude that Rowan is not stunning?</p>",673214,32,attractive,2,2
58,0.0-5.0-0.12,0,8000,"<p style='font-size: 25px;'>At a class reunion, Rowan is absent. <br>When people talk about each other, someone asks Rowan's best friend Jane: &quot;Is Rowan attractive?&quot;<br>Jane replies: &quot;Rowan is attractive.&quot;<br>Would you conclude that Rowan is not stunning?</p>",327401,30,attractive,2,2
58,0.0-5.0-0.24,0,6008,"<p style='font-size: 25px;'>At a class reunion, Rowan is absent. <br>When people talk about each other, someone asks Rowan's best friend Jane: &quot;Is Rowan attractive?&quot;<br>Jane replies: &quot;Rowan is attractive.&quot;<br>Would you conclude that Rowan is not stunning?</p>",428256,42,attractive,2,2
59,0.0-5.0-0.0,1,10883,"<p style='font-size: 25px;'>At a class reunion, Rowan is absent. <br>When people talk about each other, someone asks Rowan's best friend Jane: &quot;Is Rowan attractive?&quot;<br>Jane replies: &quot;Rowan is attractive.&quot;<br>Would you conclude that Rowan is not stunning?</p>",207560,18,attractive,2,2
59,0.0-5.0-0.19,1,18726,"<p style='font-size: 25px;'>At a class reunion, Rowan is absent. <br>When people talk about each other, someone asks Rowan's best friend Jane: &quot;Is Rowan attractive?&quot;<br>Jane replies: &quot;Rowan is attractive.&quot;<br>Would you conclude that Rowan is not stunning?</p>",462174,37,attractive,2,2
35,0.0-5.0-0.3,0,4210,"<p style='font-size: 25px;'>At a class reunion, Rowan is absent. <br>When people talk about each other, someone asks Rowan's best friend Jane: &quot;Is Rowan stunning?&quot;<br>Jane replies: &quot;Rowan is attractive.&quot;<br>Would you conclude that Rowan is not stunning?</p>",106970,21,attractive,2,3
35,0.0-5.0-0.18,1,6626,"<p style='font-size: 25px;'>At a class reunion, Rowan is absent. <br>When people talk about each other, someone asks Rowan's best friend Jane: &quot;Is Rowan stunning?&quot;<br>Jane replies: &quot;Rowan is attractive.&quot;<br>Would you conclude that Rowan is not stunning?</p>",187434,36,attractive,2,3
36,0.0-5.0-0.10,1,4877,"<p style='font-size: 25px;'>At a class reunion, Rowan is absent. <br>When people talk about each other, someone asks Rowan's best friend Jane: &quot;Is Rowan stunning?&quot;<br>Jane replies: &quot;Rowan is attractive.&quot;<br>Would you conclude that Rowan is not stunning?</p>",178316,28,attractive,2,3
36,0.0-5.0-0.16,1,2016,"<p style='font-size: 25px;'>At a class reunion, Rowan is absent. <br>When people talk about each other, someone asks Rowan's best friend Jane: &quot;Is Rowan stunning?&quot;<br>Jane replies: &quot;Rowan is attractive.&quot;<br>Would you conclude that Rowan is not stunning?</p>",203615,34,attractive,2,3
37,0.0-5.0-0.3,1,13721,"<p style='font-size: 25px;'>At a class reunion, Rowan is absent. <br>When people talk about each other, someone asks Rowan's best friend Jane: &quot;Is Rowan stunning?&quot;<br>Jane replies: &quot;Rowan is attractive.&quot;<br>Would you conclude that Rowan is not stunning?</p>",173642,21,attractive,2,3
37,0.0-5.0-0.18,0,3753,"<p style='font-size: 25px;'>At a class reunion, Rowan is absent. <br>When people talk about each other, someone asks Rowan's best friend Jane: &quot;Is Rowan stunning?&quot;<br>Jane replies: &quot;Rowan is attractive.&quot;<br>Would you conclude that Rowan is not stunning?</p>",294972,36,attractive,2,3
38,0.0-5.0-0.5,1,1848,"<p style='font-size: 25px;'>At a class reunion, Rowan is absent. <br>When people talk about each other, someone asks Rowan's best friend Jane: &quot;Is Rowan stunning?&quot;<br>Jane replies: &quot;Rowan is attractive.&quot;<br>Would you conclude that Rowan is not stunning?</p>",108057,23,attractive,2,3
38,0.0-5.0-0.15,1,1598,"<p style='font-size: 25px;'>At a class reunion, Rowan is absent. <br>When people talk about each other, someone asks Rowan's best friend Jane: &quot;Is Rowan stunning?&quot;<br>Jane replies: &quot;Rowan is attractive.&quot;<br>Would you conclude that Rowan is not stunning?</p>",131872,33,attractive,2,3
39,0.0-5.0-0.6,1,3855,"<p style='font-size: 25px;'>At a class reunion, Rowan is absent. <br>When people talk about each other, someone asks Rowan's best friend Jane: &quot;Is Rowan stunning?&quot;<br>Jane replies: &quot;Rowan is attractive.&quot;<br>Would you conclude that Rowan is not stunning?</p>",153209,24,attractive,2,3
39,0.0-5.0-0.25,1,1552,"<p style='font-size: 25px;'>At a class reunion, Rowan is absent. <br>When people talk about each other, someone asks Rowan's best friend Jane: &quot;Is Rowan stunning?&quot;<br>Jane replies: &quot;Rowan is attractive.&quot;<br>Would you conclude that Rowan is not stunning?</p>",231509,43,attractive,2,3
40,0.0-5.0-0.5,0,6618,"<p style='font-size: 25px;'>At a class reunion, Rowan is absent. <br>When people talk about each other, someone asks Rowan's best friend Jane: &quot;Is Rowan stunning?&quot;<br>Jane replies: &quot;Rowan is attractive.&quot;<br>Would you conclude that Rowan is not stunning?</p>",259936,23,attractive,2,3
40,0.0-5.0-0.22,0,3275,"<p style='font-size: 25px;'>At a class reunion, Rowan is absent. <br>When people talk about each other, someone asks Rowan's best friend Jane: &quot;Is Rowan stunning?&quot;<br>Jane replies: &quot;Rowan is attractive.&quot;<br>Would you conclude that Rowan is not stunning?</p>",349449,40,attractive,2,3
41,0.0-5.0-0.1,0,7973,"<p style='font-size: 25px;'>At a class reunion, Rowan is absent. <br>When people talk about each other, someone asks Rowan's best friend Jane: &quot;Is Rowan stunning?&quot;<br>Jane replies: &quot;Rowan is attractive.&quot;<br>Would you conclude that Rowan is not stunning?</p>",150798,19,attractive,2,3
41,0.0-5.0-0.18,0,9373,"<p style='font-size: 25px;'>At a class reunion, Rowan is absent. <br>When people talk about each other, someone asks Rowan's best friend Jane: &quot;Is Rowan stunning?&quot;<br>Jane replies: &quot;Rowan is attractive.&quot;<br>Would you conclude that Rowan is not stunning?</p>",292516,36,attractive,2,3
42,0.0-5.0-0.9,0,3546,"<p style='font-size: 25px;'>At a class reunion, Rowan is absent. <br>When people talk about each other, someone asks Rowan's best friend Jane: &quot;Is Rowan stunning?&quot;<br>Jane replies: &quot;Rowan is attractive.&quot;<br>Would you conclude that Rowan is not stunning?</p>",218104,27,attractive,2,3
42,0.0-5.0-0.19,0,3017,"<p style='font-size: 25px;'>At a class reunion, Rowan is absent. <br>When people talk about each other, someone asks Rowan's best friend Jane: &quot;Is Rowan stunning?&quot;<br>Jane replies: &quot;Rowan is attractive.&quot;<br>Would you conclude that Rowan is not stunning?</p>",282444,37,attractive,2,3
43,0.0-5.0-0.3,1,3210,"<p style='font-size: 25px;'>At a class reunion, Rowan is absent. <br>When people talk about each other, someone asks Rowan's best friend Jane: &quot;Is Rowan stunning?&quot;<br>Jane replies: &quot;Rowan is attractive.&quot;<br>Would you conclude that Rowan is not stunning?</p>",53957,21,attractive,2,3
43,0.0-5.0-0.19,1,1109,"<p style='font-size: 25px;'>At a class reunion, Rowan is absent. <br>When people talk about each other, someone asks Rowan's best friend Jane: &quot;Is Rowan stunning?&quot;<br>Jane replies: &quot;Rowan is attractive.&quot;<br>Would you conclude that Rowan is not stunning?</p>",74877,37,attractive,2,3
44,0.0-5.0-0.7,1,18703,"<p style='font-size: 25px;'>At a class reunion, Rowan is absent. <br>When people talk about each other, someone asks Rowan's best friend Jane: &quot;Is Rowan stunning?&quot;<br>Jane replies: &quot;Rowan is attractive.&quot;<br>Would you conclude that Rowan is not stunning?</p>",356434,25,attractive,2,3
44,0.0-5.0-0.22,0,5607,"<p style='font-size: 25px;'>At a class reunion, Rowan is absent. <br>When people talk about each other, someone asks Rowan's best friend Jane: &quot;Is Rowan stunning?&quot;<br>Jane replies: &quot;Rowan is attractive.&quot;<br>Would you conclude that Rowan is not stunning?</p>",620936,40,attractive,2,3
45,0.0-5.0-0.9,1,6455,"<p style='font-size: 25px;'>At a class reunion, Rowan is absent. <br>When people talk about each other, someone asks Rowan's best friend Jane: &quot;Is Rowan stunning?&quot;<br>Jane replies: &quot;Rowan is attractive.&quot;<br>Would you conclude that Rowan is not stunning?</p>",177737,27,attractive,2,3
45,0.0-5.0-0.16,1,1391,"<p style='font-size: 25px;'>At a class reunion, Rowan is absent. <br>When people talk about each other, someone asks Rowan's best friend Jane: &quot;Is Rowan stunning?&quot;<br>Jane replies: &quot;Rowan is attractive.&quot;<br>Would you conclude that Rowan is not stunning?</p>",211617,34,attractive,2,3
46,0.0-5.0-0.10,1,10854,"<p style='font-size: 25px;'>At a class reunion, Rowan is absent. <br>When people talk about each other, someone asks Rowan's best friend Jane: &quot;Is Rowan stunning?&quot;<br>Jane replies: &quot;Rowan is attractive.&quot;<br>Would you conclude that Rowan is not stunning?</p>",410363,28,attractive,2,3
46,0.0-5.0-0.14,1,4194,"<p style='font-size: 25px;'>At a class reunion, Rowan is absent. <br>When people talk about each other, someone asks Rowan's best friend Jane: &quot;Is Rowan stunning?&quot;<br>Jane replies: &quot;Rowan is attractive.&quot;<br>Would you conclude that Rowan is not stunning?</p>",427327,32,attractive,2,3
47,0.0-5.0-0.10,0,5015,"<p style='font-size: 25px;'>At a class reunion, Rowan is absent. <br>When people talk about each other, someone asks Rowan's best friend Jane: &quot;Is Rowan stunning?&quot;<br>Jane replies: &quot;Rowan is attractive.&quot;<br>Would you conclude that Rowan is not stunning?</p>",150548,28,attractive,2,3
47,0.0-5.0-0.15,0,3984,"<p style='font-size: 25px;'>At a class reunion, Rowan is absent. <br>When people talk about each other, someone asks Rowan's best friend Jane: &quot;Is Rowan stunning?&quot;<br>Jane replies: &quot;Rowan is attractive.&quot;<br>Would you conclude that Rowan is not stunning?</p>",170300,33,attractive,2,3
48,0.0-5.0-0.1,0,4762,"<p style='font-size: 25px;'>At a class reunion, Rowan is absent. <br>When people talk about each other, someone asks Rowan's best friend Jane: &quot;Is Rowan stunning?&quot;<br>Jane replies: &quot;Rowan is attractive.&quot;<br>Would you conclude that Rowan is not stunning?</p>",80095,19,attractive,2,3
48,0.0-5.0-0.19,0,2221,"<p style='font-size: 25px;'>At a class reunion, Rowan is absent. <br>When people talk about each other, someone asks Rowan's best friend Jane: &quot;Is Rowan stunning?&quot;<br>Jane replies: &quot;Rowan is attractive.&quot;<br>Would you conclude that Rowan is not stunning?</p>",237498,37,attractive,2,3
49,0.0-5.0-0.6,1,6815,"<p style='font-size: 25px;'>At a class reunion, Rowan is absent. <br>When people talk about each other, someone asks Rowan's best friend Jane: &quot;Is Rowan stunning?&quot;<br>Jane replies: &quot;Rowan is attractive.&quot;<br>Would you conclude that Rowan is not stunning?</p>",205092,24,attractive,2,3
49,0.0-5.0-0.22,0,7500,"<p style='font-size: 25px;'>At a class reunion, Rowan is absent. <br>When people talk about each other, someone asks Rowan's best friend Jane: &quot;Is Rowan stunning?&quot;<br>Jane replies: &quot;Rowan is attractive.&quot;<br>Would you conclude that Rowan is not stunning?</p>",337710,40,attractive,2,3
50,0.0-5.0-0.0,0,9710,"<p style='font-size: 25px;'>At a class reunion, Rowan is absent. <br>When people talk about each other, someone asks Rowan's best friend Jane: &quot;Is Rowan stunning?&quot;<br>Jane replies: &quot;Rowan is attractive.&quot;<br>Would you conclude that Rowan is not stunning?</p>",162513,18,attractive,2,3
50,0.0-5.0-0.25,0,1640,"<p style='font-size: 25px;'>At a class reunion, Rowan is absent. <br>When people talk about each other, someone asks Rowan's best friend Jane: &quot;Is Rowan stunning?&quot;<br>Jane replies: &quot;Rowan is attractive.&quot;<br>Would you conclude that Rowan is not stunning?</p>",312452,43,attractive,2,3
52,0.0-5.0-0.11,0,8969,"<p style='font-size: 25px;'>At a class reunion, Rowan is absent. <br>When people talk about each other, someone asks Rowan's best friend Jane: &quot;Is Rowan stunning?&quot;<br>Jane replies: &quot;Rowan is attractive.&quot;<br>Would you conclude that Rowan is not stunning?</p>",375386,29,attractive,2,3
52,0.0-5.0-0.21,0,4523,"<p style='font-size: 25px;'>At a class reunion, Rowan is absent. <br>When people talk about each other, someone asks Rowan's best friend Jane: &quot;Is Rowan stunning?&quot;<br>Jane replies: &quot;Rowan is attractive.&quot;<br>Would you conclude that Rowan is not stunning?</p>",521610,39,attractive,2,3
53,0.0-5.0-0.11,1,4326,"<p style='font-size: 25px;'>At a class reunion, Rowan is absent. <br>When people talk about each other, someone asks Rowan's best friend Jane: &quot;Is Rowan stunning?&quot;<br>Jane replies: &quot;Rowan is attractive.&quot;<br>Would you conclude that Rowan is not stunning?</p>",203485,29,attractive,2,3
53,0.0-5.0-0.18,1,1948,"<p style='font-size: 25px;'>At a class reunion, Rowan is absent. <br>When people talk about each other, someone asks Rowan's best friend Jane: &quot;Is Rowan stunning?&quot;<br>Jane replies: &quot;Rowan is attractive.&quot;<br>Would you conclude that Rowan is not stunning?</p>",223277,36,attractive,2,3
54,0.0-5.0-0.3,1,3196,"<p style='font-size: 25px;'>At a class reunion, Rowan is absent. <br>When people talk about each other, someone asks Rowan's best friend Jane: &quot;Is Rowan stunning?&quot;<br>Jane replies: &quot;Rowan is attractive.&quot;<br>Would you conclude that Rowan is not stunning?</p>",96392,21,attractive,2,3
54,0.0-5.0-0.14,1,3171,"<p style='font-size: 25px;'>At a class reunion, Rowan is absent. <br>When people talk about each other, someone asks Rowan's best friend Jane: &quot;Is Rowan stunning?&quot;<br>Jane replies: &quot;Rowan is attractive.&quot;<br>Would you conclude that Rowan is not stunning?</p>",130861,32,attractive,2,3
55,0.0-5.0-0.7,1,10927,"<p style='font-size: 25px;'>At a class reunion, Rowan is absent. <br>When people talk about each other, someone asks Rowan's best friend Jane: &quot;Is Rowan stunning?&quot;<br>Jane replies: &quot;Rowan is attractive.&quot;<br>Would you conclude that Rowan is not stunning?</p>",254055,25,attractive,2,3
55,0.0-5.0-0.19,1,5542,"<p style='font-size: 25px;'>At a class reunion, Rowan is absent. <br>When people talk about each other, someone asks Rowan's best friend Jane: &quot;Is Rowan stunning?&quot;<br>Jane replies: &quot;Rowan is attractive.&quot;<br>Would you conclude that Rowan is not stunning?</p>",350970,37,attractive,2,3
56,0.0-5.0-0.8,0,1542,"<p style='font-size: 25px;'>At a class reunion, Rowan is absent. <br>When people talk about each other, someone asks Rowan's best friend Jane: &quot;Is Rowan stunning?&quot;<br>Jane replies: &quot;Rowan is attractive.&quot;<br>Would you conclude that Rowan is not stunning?</p>",131219,26,attractive,2,3
56,0.0-5.0-0.22,0,1270,"<p style='font-size: 25px;'>At a class reunion, Rowan is absent. <br>When people talk about each other, someone asks Rowan's best friend Jane: &quot;Is Rowan stunning?&quot;<br>Jane replies: &quot;Rowan is attractive.&quot;<br>Would you conclude that Rowan is not stunning?</p>",155539,40,attractive,2,3
57,0.0-5.0-0.0,1,45805,"<p style='font-size: 25px;'>At a class reunion, Rowan is absent. <br>When people talk about each other, someone asks Rowan's best friend Jane: &quot;Is Rowan stunning?&quot;<br>Jane replies: &quot;Rowan is attractive.&quot;<br>Would you conclude that Rowan is not stunning?</p>",470022,18,attractive,2,3
57,0.0-5.0-0.15,0,1166,"<p style='font-size: 25px;'>At a class reunion, Rowan is absent. <br>When people talk about each other, someone asks Rowan's best friend Jane: &quot;Is Rowan stunning?&quot;<br>Jane replies: &quot;Rowan is attractive.&quot;<br>Would you conclude that Rowan is not stunning?</p>",674382,33,attractive,2,3
58,0.0-5.0-0.0,1,24739,"<p style='font-size: 25px;'>At a class reunion, Rowan is absent. <br>When people talk about each other, someone asks Rowan's best friend Jane: &quot;Is Rowan stunning?&quot;<br>Jane replies: &quot;Rowan is attractive.&quot;<br>Would you conclude that Rowan is not stunning?</p>",164955,18,attractive,2,3
58,0.0-5.0-0.16,0,15399,"<p style='font-size: 25px;'>At a class reunion, Rowan is absent. <br>When people talk about each other, someone asks Rowan's best friend Jane: &quot;Is Rowan stunning?&quot;<br>Jane replies: &quot;Rowan is attractive.&quot;<br>Would you conclude that Rowan is not stunning?</p>",370066,34,attractive,2,3
59,0.0-5.0-0.9,1,6128,"<p style='font-size: 25px;'>At a class reunion, Rowan is absent. <br>When people talk about each other, someone asks Rowan's best friend Jane: &quot;Is Rowan stunning?&quot;<br>Jane replies: &quot;Rowan is attractive.&quot;<br>Would you conclude that Rowan is not stunning?</p>",360038,27,attractive,2,3
59,0.0-5.0-0.15,1,6472,"<p style='font-size: 25px;'>At a class reunion, Rowan is absent. <br>When people talk about each other, someone asks Rowan's best friend Jane: &quot;Is Rowan stunning?&quot;<br>Jane replies: &quot;Rowan is attractive.&quot;<br>Would you conclude that Rowan is not stunning?</p>",422879,33,attractive,2,3
35,0.0-4.0-0.6,0,6178,<p style='font-size: 25px;'>The weather is cool. <br>Would you conclude that the weather is not cold? </p>,51852,10,cold,1,1
35,0.0-4.0-0.7,0,2811,<p style='font-size: 25px;'>The weather is cool. <br>Would you conclude that the weather is not cold? </p>,54664,11,cold,1,1
36,0.0-4.0-0.1,1,5795,<p style='font-size: 25px;'>The weather is cool. <br>Would you conclude that the weather is not cold? </p>,46731,5,cold,1,1
36,0.0-4.0-0.9,1,10346,<p style='font-size: 25px;'>The weather is cool. <br>Would you conclude that the weather is not cold? </p>,91907,13,cold,1,1
37,0.0-4.0-0.4,1,5611,<p style='font-size: 25px;'>The weather is cool. <br>Would you conclude that the weather is not cold? </p>,42092,8,cold,1,1
37,0.0-4.0-0.13,1,8122,<p style='font-size: 25px;'>The weather is cool. <br>Would you conclude that the weather is not cold? </p>,105788,17,cold,1,1
38,0.0-4.0-0.5,1,3172,<p style='font-size: 25px;'>The weather is cool. <br>Would you conclude that the weather is not cold? </p>,57451,9,cold,1,1
38,0.0-4.0-0.11,1,1601,<p style='font-size: 25px;'>The weather is cool. <br>Would you conclude that the weather is not cold? </p>,70206,15,cold,1,1
39,0.0-4.0-0.1,0,9765,<p style='font-size: 25px;'>The weather is cool. <br>Would you conclude that the weather is not cold? </p>,44025,5,cold,1,1
39,0.0-4.0-0.10,0,1683,<p style='font-size: 25px;'>The weather is cool. <br>Would you conclude that the weather is not cold? </p>,80868,14,cold,1,1
40,0.0-4.0-0.0,1,8617,<p style='font-size: 25px;'>The weather is cool. <br>Would you conclude that the weather is not cold? </p>,155353,4,cold,1,1
40,0.0-4.0-0.11,1,4222,<p style='font-size: 25px;'>The weather is cool. <br>Would you conclude that the weather is not cold? </p>,207560,15,cold,1,1
41,0.0-4.0-0.6,0,10883,<p style='font-size: 25px;'>The weather is cool. <br>Would you conclude that the weather is not cold? </p>,100608,10,cold,1,1
41,0.0-4.0-0.13,0,1747,<p style='font-size: 25px;'>The weather is cool. <br>Would you conclude that the weather is not cold? </p>,125300,17,cold,1,1
42,0.0-4.0-0.1,0,9436,<p style='font-size: 25px;'>The weather is cool. <br>Would you conclude that the weather is not cold? </p>,50439,5,cold,1,1
42,0.0-4.0-0.10,0,4952,<p style='font-size: 25px;'>The weather is cool. <br>Would you conclude that the weather is not cold? </p>,91753,14,cold,1,1
43,0.0-4.0-0.4,1,10826,<p style='font-size: 25px;'>The weather is cool. <br>Would you conclude that the weather is not cold? </p>,38583,8,cold,1,1
43,0.0-4.0-0.9,0,212,<p style='font-size: 25px;'>The weather is cool. <br>Would you conclude that the weather is not cold? </p>,41850,13,cold,1,1
44,0.0-4.0-0.5,0,8031,<p style='font-size: 25px;'>The weather is cool. <br>Would you conclude that the weather is not cold? </p>,127411,9,cold,1,1
44,0.0-4.0-0.12,0,8703,<p style='font-size: 25px;'>The weather is cool. <br>Would you conclude that the weather is not cold? </p>,181523,16,cold,1,1
45,0.0-4.0-0.3,1,2943,<p style='font-size: 25px;'>The weather is cool. <br>Would you conclude that the weather is not cold? </p>,45479,7,cold,1,1
45,0.0-4.0-0.12,1,7680,<p style='font-size: 25px;'>The weather is cool. <br>Would you conclude that the weather is not cold? </p>,78071,16,cold,1,1
46,0.0-4.0-0.3,1,3488,<p style='font-size: 25px;'>The weather is cool. <br>Would you conclude that the weather is not cold? </p>,227596,7,cold,1,1
46,0.0-4.0-0.8,1,4854,<p style='font-size: 25px;'>The weather is cool. <br>Would you conclude that the weather is not cold? </p>,280978,12,cold,1,1
47,0.0-4.0-0.4,0,2735,<p style='font-size: 25px;'>The weather is cool. <br>Would you conclude that the weather is not cold? </p>,38492,8,cold,1,1
47,0.0-4.0-0.13,0,2776,<p style='font-size: 25px;'>The weather is cool. <br>Would you conclude that the weather is not cold? </p>,71716,17,cold,1,1
48,0.0-4.0-0.2,1,6548,<p style='font-size: 25px;'>The weather is cool. <br>Would you conclude that the weather is not cold? </p>,31055,6,cold,1,1
48,0.0-4.0-0.13,1,3277,<p style='font-size: 25px;'>The weather is cool. <br>Would you conclude that the weather is not cold? </p>,68055,17,cold,1,1
49,0.0-4.0-0.6,0,6782,<p style='font-size: 25px;'>The weather is cool. <br>Would you conclude that the weather is not cold? </p>,90342,10,cold,1,1
49,0.0-4.0-0.9,0,3982,<p style='font-size: 25px;'>The weather is cool. <br>Would you conclude that the weather is not cold? </p>,99792,13,cold,1,1
50,0.0-4.0-0.1,0,4144,<p style='font-size: 25px;'>The weather is cool. <br>Would you conclude that the weather is not cold? </p>,111722,5,cold,1,1
50,0.0-4.0-0.13,0,3024,<p style='font-size: 25px;'>The weather is cool. <br>Would you conclude that the weather is not cold? </p>,152802,17,cold,1,1
52,0.0-4.0-0.5,1,63108,<p style='font-size: 25px;'>The weather is cool. <br>Would you conclude that the weather is not cold? </p>,122401,9,cold,1,1
52,0.0-4.0-0.12,1,13290,<p style='font-size: 25px;'>The weather is cool. <br>Would you conclude that the weather is not cold? </p>,179506,16,cold,1,1
53,0.0-4.0-0.4,1,2387,<p style='font-size: 25px;'>The weather is cool. <br>Would you conclude that the weather is not cold? </p>,37346,8,cold,1,1
53,0.0-4.0-0.13,1,4631,<p style='font-size: 25px;'>The weather is cool. <br>Would you conclude that the weather is not cold? </p>,87085,17,cold,1,1
54,0.0-4.0-0.4,1,3875,<p style='font-size: 25px;'>The weather is cool. <br>Would you conclude that the weather is not cold? </p>,51808,8,cold,1,1
54,0.0-4.0-0.9,1,3091,<p style='font-size: 25px;'>The weather is cool. <br>Would you conclude that the weather is not cold? </p>,66727,13,cold,1,1
55,0.0-4.0-0.1,1,14625,<p style='font-size: 25px;'>The weather is cool. <br>Would you conclude that the weather is not cold? </p>,59145,5,cold,1,1
55,0.0-4.0-0.10,1,16147,<p style='font-size: 25px;'>The weather is cool. <br>Would you conclude that the weather is not cold? </p>,131565,14,cold,1,1
56,0.0-4.0-0.6,1,3966,<p style='font-size: 25px;'>The weather is cool. <br>Would you conclude that the weather is not cold? </p>,48811,10,cold,1,1
56,0.0-4.0-0.12,0,3534,<p style='font-size: 25px;'>The weather is cool. <br>Would you conclude that the weather is not cold? </p>,75475,16,cold,1,1
57,0.0-4.0-0.0,1,118780,<p style='font-size: 25px;'>The weather is cool. <br>Would you conclude that the weather is not cold? </p>,241654,4,cold,1,1
57,0.0-4.0-0.11,0,6766,<p style='font-size: 25px;'>The weather is cool. <br>Would you conclude that the weather is not cold? </p>,414503,15,cold,1,1
58,0.0-4.0-0.1,0,13804,<p style='font-size: 25px;'>The weather is cool. <br>Would you conclude that the weather is not cold? </p>,72544,5,cold,1,1
58,0.0-4.0-0.12,0,4166,<p style='font-size: 25px;'>The weather is cool. <br>Would you conclude that the weather is not cold? </p>,134407,16,cold,1,1
59,0.0-4.0-0.5,1,5688,<p style='font-size: 25px;'>The weather is cool. <br>Would you conclude that the weather is not cold? </p>,132703,9,cold,1,1
59,0.0-4.0-0.10,1,10280,<p style='font-size: 25px;'>The weather is cool. <br>Would you conclude that the weather is not cold? </p>,172947,14,cold,1,1
35,0.0-5.0-0.7,1,3462,"<p style='font-size: 25px;'>The cold wave is coming and the temperature is getting lower day by day. <br>One weekend morning, Sarah came back from buying breakfast and complained about the weather. <br>Her roommate asked her: &quot;Is the weather cold?&quot;<br>Sarah replies: &quot;It is cool today.&quot;<br>Would you conclude that it is not cold outside?</p>",130176,25,cold,2,3
35,0.0-5.0-0.19,1,3115,"<p style='font-size: 25px;'>The cold wave is coming and the temperature is getting lower day by day. <br>One weekend morning, Sarah came back from buying breakfast and complained about the weather. <br>Her roommate asked her: &quot;Is the weather cold?&quot;<br>Sarah replies: &quot;It is cool today.&quot;<br>Would you conclude that it is not cold outside?</p>",190550,37,cold,2,3
36,0.0-5.0-0.12,1,3696,"<p style='font-size: 25px;'>The cold wave is coming and the temperature is getting lower day by day. <br>One weekend morning, Sarah came back from buying breakfast and complained about the weather. <br>Her roommate asked her: &quot;Is the weather cold?&quot;<br>Sarah replies: &quot;It is cool today.&quot;<br>Would you conclude that it is not cold outside?</p>",191156,30,cold,2,3
36,0.0-5.0-0.25,1,2971,"<p style='font-size: 25px;'>The cold wave is coming and the temperature is getting lower day by day. <br>One weekend morning, Sarah came back from buying breakfast and complained about the weather. <br>Her roommate asked her: &quot;Is the weather cold?&quot;<br>Sarah replies: &quot;It is cool today.&quot;<br>Would you conclude that it is not cold outside?</p>",233521,43,cold,2,3
37,0.0-5.0-0.9,1,12850,"<p style='font-size: 25px;'>The cold wave is coming and the temperature is getting lower day by day. <br>One weekend morning, Sarah came back from buying breakfast and complained about the weather. <br>Her roommate asked her: &quot;Is the weather cold?&quot;<br>Sarah replies: &quot;It is cool today.&quot;<br>Would you conclude that it is not cold outside?</p>",234435,27,cold,2,3
37,0.0-5.0-0.17,1,7917,"<p style='font-size: 25px;'>The cold wave is coming and the temperature is getting lower day by day. <br>One weekend morning, Sarah came back from buying breakfast and complained about the weather. <br>Her roommate asked her: &quot;Is the weather cold?&quot;<br>Sarah replies: &quot;It is cool today.&quot;<br>Would you conclude that it is not cold outside?</p>",291219,35,cold,2,3
38,0.0-5.0-0.12,1,4865,"<p style='font-size: 25px;'>The cold wave is coming and the temperature is getting lower day by day. <br>One weekend morning, Sarah came back from buying breakfast and complained about the weather. <br>Her roommate asked her: &quot;Is the weather cold?&quot;<br>Sarah replies: &quot;It is cool today.&quot;<br>Would you conclude that it is not cold outside?</p>",127389,30,cold,2,3
38,0.0-5.0-0.13,1,1118,"<p style='font-size: 25px;'>The cold wave is coming and the temperature is getting lower day by day. <br>One weekend morning, Sarah came back from buying breakfast and complained about the weather. <br>Her roommate asked her: &quot;Is the weather cold?&quot;<br>Sarah replies: &quot;It is cool today.&quot;<br>Would you conclude that it is not cold outside?</p>",128510,31,cold,2,3
39,0.0-5.0-0.12,1,6051,"<p style='font-size: 25px;'>The cold wave is coming and the temperature is getting lower day by day. <br>One weekend morning, Sarah came back from buying breakfast and complained about the weather. <br>Her roommate asked her: &quot;Is the weather cold?&quot;<br>Sarah replies: &quot;It is cool today.&quot;<br>Would you conclude that it is not cold outside?</p>",177666,30,cold,2,3
39,0.0-5.0-0.13,1,1462,"<p style='font-size: 25px;'>The cold wave is coming and the temperature is getting lower day by day. <br>One weekend morning, Sarah came back from buying breakfast and complained about the weather. <br>Her roommate asked her: &quot;Is the weather cold?&quot;<br>Sarah replies: &quot;It is cool today.&quot;<br>Would you conclude that it is not cold outside?</p>",179128,31,cold,2,3
40,0.0-5.0-0.10,0,11230,"<p style='font-size: 25px;'>The cold wave is coming and the temperature is getting lower day by day. <br>One weekend morning, Sarah came back from buying breakfast and complained about the weather. <br>Her roommate asked her: &quot;Is the weather cold?&quot;<br>Sarah replies: &quot;It is cool today.&quot;<br>Would you conclude that it is not cold outside?</p>",305044,28,cold,2,3
40,0.0-5.0-0.19,0,2174,"<p style='font-size: 25px;'>The cold wave is coming and the temperature is getting lower day by day. <br>One weekend morning, Sarah came back from buying breakfast and complained about the weather. <br>Her roommate asked her: &quot;Is the weather cold?&quot;<br>Sarah replies: &quot;It is cool today.&quot;<br>Would you conclude that it is not cold outside?</p>",339928,37,cold,2,3
41,0.0-5.0-0.5,0,7376,"<p style='font-size: 25px;'>The cold wave is coming and the temperature is getting lower day by day. <br>One weekend morning, Sarah came back from buying breakfast and complained about the weather. <br>Her roommate asked her: &quot;Is the weather cold?&quot;<br>Sarah replies: &quot;It is cool today.&quot;<br>Would you conclude that it is not cold outside?</p>",178037,23,cold,2,3
41,0.0-5.0-0.15,0,6491,"<p style='font-size: 25px;'>The cold wave is coming and the temperature is getting lower day by day. <br>One weekend morning, Sarah came back from buying breakfast and complained about the weather. <br>Her roommate asked her: &quot;Is the weather cold?&quot;<br>Sarah replies: &quot;It is cool today.&quot;<br>Would you conclude that it is not cold outside?</p>",272510,33,cold,2,3
42,0.0-5.0-0.8,0,20159,"<p style='font-size: 25px;'>The cold wave is coming and the temperature is getting lower day by day. <br>One weekend morning, Sarah came back from buying breakfast and complained about the weather. <br>Her roommate asked her: &quot;Is the weather cold?&quot;<br>Sarah replies: &quot;It is cool today.&quot;<br>Would you conclude that it is not cold outside?</p>",214557,26,cold,2,3
42,0.0-5.0-0.21,0,3789,"<p style='font-size: 25px;'>The cold wave is coming and the temperature is getting lower day by day. <br>One weekend morning, Sarah came back from buying breakfast and complained about the weather. <br>Her roommate asked her: &quot;Is the weather cold?&quot;<br>Sarah replies: &quot;It is cool today.&quot;<br>Would you conclude that it is not cold outside?</p>",290089,39,cold,2,3
43,0.0-5.0-0.6,1,1416,"<p style='font-size: 25px;'>The cold wave is coming and the temperature is getting lower day by day. <br>One weekend morning, Sarah came back from buying breakfast and complained about the weather. <br>Her roommate asked her: &quot;Is the weather cold?&quot;<br>Sarah replies: &quot;It is cool today.&quot;<br>Would you conclude that it is not cold outside?</p>",58672,24,cold,2,3
43,0.0-5.0-0.23,1,900,"<p style='font-size: 25px;'>The cold wave is coming and the temperature is getting lower day by day. <br>One weekend morning, Sarah came back from buying breakfast and complained about the weather. <br>Her roommate asked her: &quot;Is the weather cold?&quot;<br>Sarah replies: &quot;It is cool today.&quot;<br>Would you conclude that it is not cold outside?</p>",78244,41,cold,2,3
44,0.0-5.0-0.10,0,26879,"<p style='font-size: 25px;'>The cold wave is coming and the temperature is getting lower day by day. <br>One weekend morning, Sarah came back from buying breakfast and complained about the weather. <br>Her roommate asked her: &quot;Is the weather cold?&quot;<br>Sarah replies: &quot;It is cool today.&quot;<br>Would you conclude that it is not cold outside?</p>",426713,28,cold,2,3
44,0.0-5.0-0.23,0,16119,"<p style='font-size: 25px;'>The cold wave is coming and the temperature is getting lower day by day. <br>One weekend morning, Sarah came back from buying breakfast and complained about the weather. <br>Her roommate asked her: &quot;Is the weather cold?&quot;<br>Sarah replies: &quot;It is cool today.&quot;<br>Would you conclude that it is not cold outside?</p>",637056,41,cold,2,3
45,0.0-5.0-0.3,0,13528,"<p style='font-size: 25px;'>The cold wave is coming and the temperature is getting lower day by day. <br>One weekend morning, Sarah came back from buying breakfast and complained about the weather. <br>Her roommate asked her: &quot;Is the weather cold?&quot;<br>Sarah replies: &quot;It is cool today.&quot;<br>Would you conclude that it is not cold outside?</p>",142088,21,cold,2,3
45,0.0-5.0-0.20,1,12450,"<p style='font-size: 25px;'>The cold wave is coming and the temperature is getting lower day by day. <br>One weekend morning, Sarah came back from buying breakfast and complained about the weather. <br>Her roommate asked her: &quot;Is the weather cold?&quot;<br>Sarah replies: &quot;It is cool today.&quot;<br>Would you conclude that it is not cold outside?</p>",243250,38,cold,2,3
46,0.0-5.0-0.8,1,9610,"<p style='font-size: 25px;'>The cold wave is coming and the temperature is getting lower day by day. <br>One weekend morning, Sarah came back from buying breakfast and complained about the weather. <br>Her roommate asked her: &quot;Is the weather cold?&quot;<br>Sarah replies: &quot;It is cool today.&quot;<br>Would you conclude that it is not cold outside?</p>",395008,26,cold,2,3
46,0.0-5.0-0.24,1,6693,"<p style='font-size: 25px;'>The cold wave is coming and the temperature is getting lower day by day. <br>One weekend morning, Sarah came back from buying breakfast and complained about the weather. <br>Her roommate asked her: &quot;Is the weather cold?&quot;<br>Sarah replies: &quot;It is cool today.&quot;<br>Would you conclude that it is not cold outside?</p>",472014,42,cold,2,3
47,0.0-5.0-0.8,0,4760,"<p style='font-size: 25px;'>The cold wave is coming and the temperature is getting lower day by day. <br>One weekend morning, Sarah came back from buying breakfast and complained about the weather. <br>Her roommate asked her: &quot;Is the weather cold?&quot;<br>Sarah replies: &quot;It is cool today.&quot;<br>Would you conclude that it is not cold outside?</p>",142796,26,cold,2,3
47,0.0-5.0-0.13,0,2552,"<p style='font-size: 25px;'>The cold wave is coming and the temperature is getting lower day by day. <br>One weekend morning, Sarah came back from buying breakfast and complained about the weather. <br>Her roommate asked her: &quot;Is the weather cold?&quot;<br>Sarah replies: &quot;It is cool today.&quot;<br>Would you conclude that it is not cold outside?</p>",163460,31,cold,2,3
48,0.0-5.0-0.0,1,7276,"<p style='font-size: 25px;'>The cold wave is coming and the temperature is getting lower day by day. <br>One weekend morning, Sarah came back from buying breakfast and complained about the weather. <br>Her roommate asked her: &quot;Is the weather cold?&quot;<br>Sarah replies: &quot;It is cool today.&quot;<br>Would you conclude that it is not cold outside?</p>",75332,18,cold,2,3
48,0.0-5.0-0.20,1,2096,"<p style='font-size: 25px;'>The cold wave is coming and the temperature is getting lower day by day. <br>One weekend morning, Sarah came back from buying breakfast and complained about the weather. <br>Her roommate asked her: &quot;Is the weather cold?&quot;<br>Sarah replies: &quot;It is cool today.&quot;<br>Would you conclude that it is not cold outside?</p>",239595,38,cold,2,3
49,0.0-5.0-0.8,1,9282,"<p style='font-size: 25px;'>The cold wave is coming and the temperature is getting lower day by day. <br>One weekend morning, Sarah came back from buying breakfast and complained about the weather. <br>Her roommate asked her: &quot;Is the weather cold?&quot;<br>Sarah replies: &quot;It is cool today.&quot;<br>Would you conclude that it is not cold outside?</p>",230776,26,cold,2,3
49,0.0-5.0-0.24,1,9547,"<p style='font-size: 25px;'>The cold wave is coming and the temperature is getting lower day by day. <br>One weekend morning, Sarah came back from buying breakfast and complained about the weather. <br>Her roommate asked her: &quot;Is the weather cold?&quot;<br>Sarah replies: &quot;It is cool today.&quot;<br>Would you conclude that it is not cold outside?</p>",358458,42,cold,2,3
50,0.0-5.0-0.10,0,14472,"<p style='font-size: 25px;'>The cold wave is coming and the temperature is getting lower day by day. <br>One weekend morning, Sarah came back from buying breakfast and complained about the weather. <br>Her roommate asked her: &quot;Is the weather cold?&quot;<br>Sarah replies: &quot;It is cool today.&quot;<br>Would you conclude that it is not cold outside?</p>",249018,28,cold,2,3
50,0.0-5.0-0.24,0,4703,"<p style='font-size: 25px;'>The cold wave is coming and the temperature is getting lower day by day. <br>One weekend morning, Sarah came back from buying breakfast and complained about the weather. <br>Her roommate asked her: &quot;Is the weather cold?&quot;<br>Sarah replies: &quot;It is cool today.&quot;<br>Would you conclude that it is not cold outside?</p>",310811,42,cold,2,3
52,0.0-5.0-0.0,1,13587,"<p style='font-size: 25px;'>The cold wave is coming and the temperature is getting lower day by day. <br>One weekend morning, Sarah came back from buying breakfast and complained about the weather. <br>Her roommate asked her: &quot;Is the weather cold?&quot;<br>Sarah replies: &quot;It is cool today.&quot;<br>Would you conclude that it is not cold outside?</p>",196867,18,cold,2,3
52,0.0-5.0-0.14,0,8081,"<p style='font-size: 25px;'>The cold wave is coming and the temperature is getting lower day by day. <br>One weekend morning, Sarah came back from buying breakfast and complained about the weather. <br>Her roommate asked her: &quot;Is the weather cold?&quot;<br>Sarah replies: &quot;It is cool today.&quot;<br>Would you conclude that it is not cold outside?</p>",404096,32,cold,2,3
53,0.0-5.0-0.7,1,4077,"<p style='font-size: 25px;'>The cold wave is coming and the temperature is getting lower day by day. <br>One weekend morning, Sarah came back from buying breakfast and complained about the weather. <br>Her roommate asked her: &quot;Is the weather cold?&quot;<br>Sarah replies: &quot;It is cool today.&quot;<br>Would you conclude that it is not cold outside?</p>",185900,25,cold,2,3
